word,color,practice,congruent,incongruent,CN,GC,corrAns,CNpractice.thisRepN,CNpractice.thisTrialN,CNpractice.thisN,CNpractice.thisIndex,CNtrials.thisRepN,CNtrials.thisTrialN,CNtrials.thisN,CNtrials.thisIndex,GCpractice.thisRepN,GCpractice.thisTrialN,GCpractice.thisN,GCpractice.thisIndex,GCtrials.thisRepN,GCtrials.thisTrialN,GCtrials.thisN,GCtrials.thisIndex,thisRow.t,notes,CN_instructions1.started,key_resp_2.started,text.started,CN_instructions1.stopped,key_resp_2.keys,key_resp_2.rt,key_resp_2.duration,CNpracticetrials.started,practicetask1.started,practicetaskkeys.started,CNpracticetrials.stopped,practicetaskkeys.keys,practicetaskkeys.rt,practicetaskkeys.duration,CN_instructions2.started,key_resp.started,instrText.started,CN_instructions2.stopped,key_resp.keys,key_resp.rt,key_resp.duration,colornaming.started,target.started,response.started,colornaming.stopped,response.keys,response.corr,response.rt,response.duration,CNend.started,key_resp_3.started,text_2.started,CNend.stopped,key_resp_3.keys,key_resp_3.rt,key_resp_3.duration,GC_instructions1.started,key_resp_4.started,text_3.started,GC_instructions1.stopped,key_resp_4.keys,key_resp_4.rt,key_resp_4.duration,GCpracticetrials.started,text_6.started,key_resp_8.started,GCpracticetrials.stopped,key_resp_8.keys,key_resp_8.rt,key_resp_8.duration,GC_instructions2.started,key_resp_6.started,text_5.started,GC_instructions2.stopped,key_resp_6.keys,key_resp_6.rt,key_resp_6.duration,gendercategorization.started,trial_task_2_text.started,key_resp_5.started,gendercategorization.stopped,key_resp_5.keys,key_resp_5.corr,key_resp_5.rt,key_resp_5.duration,final_message.started,text_4.started,key_resp_7.started,final_message.stopped,key_resp_7.keys,key_resp_7.rt,key_resp_7.duration,participant,session,date,expName,psychopyVersion,frameRate,expStart,
,,,,,,,,,,,,,,,,,,,,,,,,,,0.007906524995632935,0.017218953995325137,0.5072346539964201,6.556896054993558,space,6.528470090001065,None,,,,,,,,,,,,,,,,,,,,,,,,,,,,,,,,,,,,,,,,,,,,,,,,,,,,,,,,,,,,,,,,,,074071,001,2024-05-10_18h03.49.239,stroop experiment,2024.1.4,None,2024-05-10 18h03.58.484696 -0400,
female,pink,1,1,0,1,0,p,0,0,0,0,,,,,,,,,,,,,6.58749282899953,,,,,,,,,6.573372211998503,7.072327489993768,7.072327489993768,8.058288332998927,p,0.9705544489988824,None,,,,,,,,,,,,,,,,,,,,,,,,,,,,,,,,,,,,,,,,,,,,,,,,,,,,,,,,,,,074071,001,2024-05-10_18h03.49.239,stroop experiment,2024.1.4,None,2024-05-10 18h03.58.484696 -0400,
niece,blue,1,0,1,1,0,b,0,1,1,3,,,,,,,,,,,,,8.073884794997866,,,,,,,,,8.059604603993648,8.572318865997659,8.572318865997659,9.04234099999303,b,0.4640684260011767,None,,,,,,,,,,,,,,,,,,,,,,,,,,,,,,,,,,,,,,,,,,,,,,,,,,,,,,,,,,,074071,001,2024-05-10_18h03.49.239,stroop experiment,2024.1.4,None,2024-05-10 18h03.58.484696 -0400,
mother,pink,1,1,0,1,0,p,0,2,2,4,,,,,,,,,,,,,9.05781235199538,,,,,,,,,9.04310411199549,9.555659244993876,9.555659244993876,9.940620503999526,p,0.3723323869999149,None,,,,,,,,,,,,,,,,,,,,,,,,,,,,,,,,,,,,,,,,,,,,,,,,,,,,,,,,,,,074071,001,2024-05-10_18h03.49.239,stroop experiment,2024.1.4,None,2024-05-10 18h03.58.484696 -0400,
boy,blue,1,1,0,1,0,b,0,3,3,1,,,,,,,,,,,,,9.954874307994032,,,,,,,,,9.941090748994611,10.455423636994965,10.455423636994965,10.776522119995207,b,0.315209082000365,None,,,,,,,,,,,,,,,,,,,,,,,,,,,,,,,,,,,,,,,,,,,,,,,,,,,,,,,,,,,074071,001,2024-05-10_18h03.49.239,stroop experiment,2024.1.4,None,2024-05-10 18h03.58.484696 -0400,
husband,pink,1,0,1,1,0,b,0,4,4,2,,,,,,,,,,,,,10.791145195995341,,,,,,,,,10.777306692994898,11.272452460994828,11.272452460994828,11.711907109995082,p,0.43034511800215114,None,,,,,,,,,,,,,,,,,,,,,,,,,,,,,,,,,,,,,,,,,,,,,,,,,,,,,,,,,,,074071,001,2024-05-10_18h03.49.239,stroop experiment,2024.1.4,None,2024-05-10 18h03.58.484696 -0400,
,,,,,,,,,,,,,,,,,,,,,,,,,,,,,,,,,,,,,,,,11.712429200997576,11.723430029996962,12.215175888995873,12.840118789994449,space,1.1035122989997035,None,,,,,,,,,,,,,,,,,,,,,,,,,,,,,,,,,,,,,,,,,,,,,,,,,,,,074071,001,2024-05-10_18h03.49.239,stroop experiment,2024.1.4,None,2024-05-10 18h03.58.484696 -0400,
lady,pink,0,1,0,1,0,p,,,,,0,0,0,16,,,,,,,,,12.871292923999135,,,,,,,,,,,,,,,,,,,,,,,12.860657453995373,13.355547017999925,13.355547017999925,14.174117650996777,p,1,0.8110794229942258,None,,,,,,,,,,,,,,,,,,,,,,,,,,,,,,,,,,,,,,,,,,,,074071,001,2024-05-10_18h03.49.239,stroop experiment,2024.1.4,None,2024-05-10 18h03.58.484696 -0400,
girl,pink,0,1,0,1,0,p,,,,,0,1,1,3,,,,,,,,,14.188022967995494,,,,,,,,,,,,,,,,,,,,,,,14.175286559999222,14.68898777999857,14.68898777999857,15.225795912992908,p,1,0.5340199690035661,None,,,,,,,,,,,,,,,,,,,,,,,,,,,,,,,,,,,,,,,,,,,,074071,001,2024-05-10_18h03.49.239,stroop experiment,2024.1.4,None,2024-05-10 18h03.58.484696 -0400,
aunt,blue,0,0,1,1,0,b,,,,,0,2,2,2,,,,,,,,,15.239894436999748,,,,,,,,,,,,,,,,,,,,,,,15.226638664993516,15.739504405995831,15.739504405995831,16.109720076994563,b,1,0.35050901700014947,None,,,,,,,,,,,,,,,,,,,,,,,,,,,,,,,,,,,,,,,,,,,,074071,001,2024-05-10_18h03.49.239,stroop experiment,2024.1.4,None,2024-05-10 18h03.58.484696 -0400,
grandma,blue,0,0,1,1,0,b,,,,,0,3,3,15,,,,,,,,,16.124749977992906,,,,,,,,,,,,,,,,,,,,,,,16.110720595999737,16.62165451799956,16.62165451799956,17.125011890995665,b,1,0.5003022939999937,None,,,,,,,,,,,,,,,,,,,,,,,,,,,,,,,,,,,,,,,,,,,,074071,001,2024-05-10_18h03.49.239,stroop experiment,2024.1.4,None,2024-05-10 18h03.58.484696 -0400,
uncle,blue,0,1,0,1,0,b,,,,,0,4,4,1,,,,,,,,,17.139193467999576,,,,,,,,,,,,,,,,,,,,,,,17.125835072998598,17.638126767997164,17.638126767997164,18.30662967999524,b,1,0.654985437002324,None,,,,,,,,,,,,,,,,,,,,,,,,,,,,,,,,,,,,,,,,,,,,074071,001,2024-05-10_18h03.49.239,stroop experiment,2024.1.4,None,2024-05-10 18h03.58.484696 -0400,
dad,pink,0,0,1,1,0,p,,,,,0,5,5,14,,,,,,,,,18.321939959998417,,,,,,,,,,,,,,,,,,,,,,,18.307309981995786,18.821906268996827,18.821906268996827,19.17381027499505,p,1,0.337224722999963,None,,,,,,,,,,,,,,,,,,,,,,,,,,,,,,,,,,,,,,,,,,,,074071,001,2024-05-10_18h03.49.239,stroop experiment,2024.1.4,None,2024-05-10 18h03.58.484696 -0400,
grandpa,pink,0,0,1,1,0,b,,,,,0,6,6,5,,,,,,,,,19.18806447699899,,,,,,,,,,,,,,,,,,,,,,,19.174614572999417,19.68952344999707,19.68952344999707,20.224342495996098,p,0,0.5272014450019924,None,,,,,,,,,,,,,,,,,,,,,,,,,,,,,,,,,,,,,,,,,,,,074071,001,2024-05-10_18h03.49.239,stroop experiment,2024.1.4,None,2024-05-10 18h03.58.484696 -0400,
son,blue,0,1,0,1,0,b,,,,,0,7,7,6,,,,,,,,,20.238822451996384,,,,,,,,,,,,,,,,,,,,,,,20.225063101999694,20.738758043997223,20.738758043997223,21.109519897996506,b,1,0.3671483360012644,None,,,,,,,,,,,,,,,,,,,,,,,,,,,,,,,,,,,,,,,,,,,,074071,001,2024-05-10_18h03.49.239,stroop experiment,2024.1.4,None,2024-05-10 18h03.58.484696 -0400,
father,blue,0,1,0,1,0,b,,,,,0,8,8,9,,,,,,,,,21.12431888699939,,,,,,,,,,,,,,,,,,,,,,,21.110530313999334,21.621429616992828,21.621429616992828,21.992417944995395,b,1,0.3528234400000656,None,,,,,,,,,,,,,,,,,,,,,,,,,,,,,,,,,,,,,,,,,,,,074071,001,2024-05-10_18h03.49.239,stroop experiment,2024.1.4,None,2024-05-10 18h03.58.484696 -0400,
maid,blue,0,0,1,1,0,b,,,,,0,9,9,18,,,,,,,,,22.007145063995267,,,,,,,,,,,,,,,,,,,,,,,21.993416206998518,22.50465953499952,22.50465953499952,22.95639171399671,b,1,0.43639049799821805,None,,,,,,,,,,,,,,,,,,,,,,,,,,,,,,,,,,,,,,,,,,,,074071,001,2024-05-10_18h03.49.239,stroop experiment,2024.1.4,None,2024-05-10 18h03.58.484696 -0400,
nephew,pink,0,0,1,1,0,p,,,,,0,10,10,19,,,,,,,,,22.970969786998467,,,,,,,,,,,,,,,,,,,,,,,22.9569252999936,23.456837071993505,23.456837071993505,23.843053994998627,p,1,0.3832253610016778,None,,,,,,,,,,,,,,,,,,,,,,,,,,,,,,,,,,,,,,,,,,,,074071,001,2024-05-10_18h03.49.239,stroop experiment,2024.1.4,None,2024-05-10 18h03.58.484696 -0400,
wife,blue,0,0,1,1,0,b,,,,,0,11,11,7,,,,,,,,,23.856073135997576,,,,,,,,,,,,,,,,,,,,,,,23.843916657999216,24.354924939994817,24.354924939994817,25.023335332996794,b,1,0.6657983090044581,None,,,,,,,,,,,,,,,,,,,,,,,,,,,,,,,,,,,,,,,,,,,,074071,001,2024-05-10_18h03.49.239,stroop experiment,2024.1.4,None,2024-05-10 18h03.58.484696 -0400,
sister,pink,0,1,0,1,0,p,,,,,0,12,12,13,,,,,,,,,25.03754057299375,,,,,,,,,,,,,,,,,,,,,,,25.023862109999754,25.538137094998092,25.538137094998092,26.25804142299603,p,1,0.7138942890014732,None,,,,,,,,,,,,,,,,,,,,,,,,,,,,,,,,,,,,,,,,,,,,074071,001,2024-05-10_18h03.49.239,stroop experiment,2024.1.4,None,2024-05-10 18h03.58.484696 -0400,
female,pink,0,1,0,1,0,p,,,,,0,13,13,0,,,,,,,,,26.272150293996674,,,,,,,,,,,,,,,,,,,,,,,26.258857099994202,26.772287991996564,26.772287991996564,27.17360902199289,p,1,0.38845490700623486,None,,,,,,,,,,,,,,,,,,,,,,,,,,,,,,,,,,,,,,,,,,,,074071,001,2024-05-10_18h03.49.239,stroop experiment,2024.1.4,None,2024-05-10 18h03.58.484696 -0400,
damsel,blue,0,0,1,1,0,b,,,,,0,14,14,11,,,,,,,,,27.18881309099379,,,,,,,,,,,,,,,,,,,,,,,27.174425805998908,27.688631433993578,27.688631433993578,28.1579033779999,b,1,0.4637986860034289,None,,,,,,,,,,,,,,,,,,,,,,,,,,,,,,,,,,,,,,,,,,,,074071,001,2024-05-10_18h03.49.239,stroop experiment,2024.1.4,None,2024-05-10 18h03.58.484696 -0400,
daughter,pink,0,1,0,1,0,p,,,,,0,15,15,10,,,,,,,,,28.172235427999112,,,,,,,,,,,,,,,,,,,,,,,28.15873400399869,28.671679018996656,28.671679018996656,29.191833104996476,p,1,0.5011816690021078,None,,,,,,,,,,,,,,,,,,,,,,,,,,,,,,,,,,,,,,,,,,,,074071,001,2024-05-10_18h03.49.239,stroop experiment,2024.1.4,None,2024-05-10 18h03.58.484696 -0400,
handsome,blue,0,1,0,1,0,b,,,,,0,16,16,12,,,,,,,,,29.207865560994833,,,,,,,,,,,,,,,,,,,,,,,29.192883969997638,29.705004325995105,29.705004325995105,30.240115714994317,b,1,0.5279173169983551,None,,,,,,,,,,,,,,,,,,,,,,,,,,,,,,,,,,,,,,,,,,,,074071,001,2024-05-10_18h03.49.239,stroop experiment,2024.1.4,None,2024-05-10 18h03.58.484696 -0400,
gentleman,pink,0,0,1,1,0,p,,,,,0,17,17,4,,,,,,,,,30.2544466909967,,,,,,,,,,,,,,,,,,,,,,,30.24070807199314,30.755954573993222,30.755954573993222,31.207438173994888,p,1,0.4415305740039912,None,,,,,,,,,,,,,,,,,,,,,,,,,,,,,,,,,,,,,,,,,,,,074071,001,2024-05-10_18h03.49.239,stroop experiment,2024.1.4,None,2024-05-10 18h03.58.484696 -0400,
guy,blue,0,1,0,1,0,b,,,,,0,18,18,17,,,,,,,,,31.2213200719998,,,,,,,,,,,,,,,,,,,,,,,31.207996847995673,31.722153659997275,31.722153659997275,32.189624244994775,b,1,0.4557254710016423,None,,,,,,,,,,,,,,,,,,,,,,,,,,,,,,,,,,,,,,,,,,,,074071,001,2024-05-10_18h03.49.239,stroop experiment,2024.1.4,None,2024-05-10 18h03.58.484696 -0400,
male,pink,0,0,1,1,0,p,,,,,0,19,19,8,,,,,,,,,32.20512324399897,,,,,,,,,,,,,,,,,,,,,,,32.190167634995305,32.68787945899385,32.68787945899385,33.12278190499637,p,1,0.42384737199608935,None,,,,,,,,,,,,,,,,,,,,,,,,,,,,,,,,,,,,,,,,,,,,074071,001,2024-05-10_18h03.49.239,stroop experiment,2024.1.4,None,2024-05-10 18h03.58.484696 -0400,
,,,,,,,,,,,,,,,,,,,,,,,,,,,,,,,,,,,,,,,,,,,,,,,,,,,,,,,33.123239577995264,33.13786247399548,33.63838694399601,34.29097636099323,space,1.1389372140038176,None,,,,,,,,,,,,,,,,,,,,,,,,,,,,,,,,,,,,,074071,001,2024-05-10_18h03.49.239,stroop experiment,2024.1.4,None,2024-05-10 18h03.58.484696 -0400,
,,,,,,,,,,,,,,,,,,,,,,,,,,,,,,,,,,,,,,,,,,,,,,,,,,,,,,,,,,,,,,34.291022190998774,34.3060387269943,34.8055193409964,36.041029984997294,space,1.7291684820011142,None,,,,,,,,,,,,,,,,,,,,,,,,,,,,,,074071,001,2024-05-10_18h03.49.239,stroop experiment,2024.1.4,None,2024-05-10 18h03.58.484696 -0400,
man,blue,1,1,0,0,1,m,,,,,,,,,0,0,0,4,,,,,36.067343586997595,,,,,,,,,,,,,,,,,,,,,,,,,,,,,,,,,,,,,,,,,,,,,36.05740562299616,36.55560100199364,36.55560100199364,37.19246559699968,m,0.6313627940035076,None,,,,,,,,,,,,,,,,,,,,,,,074071,001,2024-05-10_18h03.49.239,stroop experiment,2024.1.4,None,2024-05-10 18h03.58.484696 -0400,
mother,pink,1,1,0,0,1,f,,,,,,,,,0,1,1,3,,,,,37.20726114499848,,,,,,,,,,,,,,,,,,,,,,,,,,,,,,,,,,,,,,,,,,,,,37.193448541998805,37.70519349999813,37.70519349999813,38.09046509399923,f,0.36848630199529,None,,,,,,,,,,,,,,,,,,,,,,,074071,001,2024-05-10_18h03.49.239,stroop experiment,2024.1.4,None,2024-05-10 18h03.58.484696 -0400,
female,blue,1,0,1,0,1,f,,,,,,,,,0,2,2,2,,,,,38.10540221199335,,,,,,,,,,,,,,,,,,,,,,,,,,,,,,,,,,,,,,,,,,,,,38.09117331199377,38.60489198999858,38.60489198999858,39.24182072899566,f,0.619647334999172,None,,,,,,,,,,,,,,,,,,,,,,,074071,001,2024-05-10_18h03.49.239,stroop experiment,2024.1.4,None,2024-05-10 18h03.58.484696 -0400,
dad,pink,1,0,1,0,1,m,,,,,,,,,0,3,3,1,,,,,39.257425544994476,,,,,,,,,,,,,,,,,,,,,,,,,,,,,,,,,,,,,,,,,,,,,39.24270026299928,39.75510801999917,39.75510801999917,40.10871957999916,m,0.33711535800102865,None,,,,,,,,,,,,,,,,,,,,,,,074071,001,2024-05-10_18h03.49.239,stroop experiment,2024.1.4,None,2024-05-10 18h03.58.484696 -0400,
aunt,blue,1,0,1,0,1,f,,,,,,,,,0,4,4,0,,,,,40.123427989994525,,,,,,,,,,,,,,,,,,,,,,,,,,,,,,,,,,,,,,,,,,,,,40.109589965999476,40.622755750999204,40.622755750999204,42.02607038199494,f,1.3851565739969374,None,,,,,,,,,,,,,,,,,,,,,,,074071,001,2024-05-10_18h03.49.239,stroop experiment,2024.1.4,None,2024-05-10 18h03.58.484696 -0400,
,,,,,,,,,,,,,,,,,,,,,,,,,,,,,,,,,,,,,,,,,,,,,,,,,,,,,,,,,,,,,,,,,,,,,,,,,,,,42.02671695299796,42.03943523799535,42.538359864993254,43.223988881996775,space,1.18210610600363,None,,,,,,,,,,,,,,,,074071,001,2024-05-10_18h03.49.239,stroop experiment,2024.1.4,None,2024-05-10 18h03.58.484696 -0400,
madam,pink,0,1,0,0,1,f,,,,,,,,,,,,,0,0,0,17,43.255759113999375,,,,,,,,,,,,,,,,,,,,,,,,,,,,,,,,,,,,,,,,,,,,,,,,,,,,,,,,,,,43.24508601899288,43.739335887999914,43.739335887999914,44.77444682199712,f,1,1.028962144999241,None,,,,,,,,074071,001,2024-05-10_18h03.49.239,stroop experiment,2024.1.4,None,2024-05-10 18h03.58.484696 -0400,
girls,pink,0,1,0,0,1,f,,,,,,,,,,,,,0,1,1,12,44.788108878994535,,,,,,,,,,,,,,,,,,,,,,,,,,,,,,,,,,,,,,,,,,,,,,,,,,,,,,,,,,,44.77556351799285,45.2878766359936,45.2878766359936,45.759250403993065,f,1,0.4672772390040336,None,,,,,,,,074071,001,2024-05-10_18h03.49.239,stroop experiment,2024.1.4,None,2024-05-10 18h03.58.484696 -0400,
man,blue,0,1,0,0,1,m,,,,,,,,,,,,,0,2,2,9,45.77389633799612,,,,,,,,,,,,,,,,,,,,,,,,,,,,,,,,,,,,,,,,,,,,,,,,,,,,,,,,,,,45.76004949399794,46.27256929199939,46.27256929199939,47.14047153599677,m,1,0.854636901000049,None,,,,,,,,074071,001,2024-05-10_18h03.49.239,stroop experiment,2024.1.4,None,2024-05-10 18h03.58.484696 -0400,
father,blue,0,1,0,0,1,m,,,,,,,,,,,,,0,3,3,13,47.15735909799696,,,,,,,,,,,,,,,,,,,,,,,,,,,,,,,,,,,,,,,,,,,,,,,,,,,,,,,,,,,47.1414645229961,47.654472025998984,47.654472025998984,49.27268977499625,m,1,1.6036887730006129,None,,,,,,,,074071,001,2024-05-10_18h03.49.239,stroop experiment,2024.1.4,None,2024-05-10 18h03.58.484696 -0400,
daughter,blue,0,0,1,0,1,f,,,,,,,,,,,,,0,4,4,14,49.28814116099966,,,,,,,,,,,,,,,,,,,,,,,,,,,,,,,,,,,,,,,,,,,,,,,,,,,,,,,,,,,49.27324486399448,49.77106632899813,49.77106632899813,51.00684701999853,f,1,1.2323597590002464,None,,,,,,,,074071,001,2024-05-10_18h03.49.239,stroop experiment,2024.1.4,None,2024-05-10 18h03.58.484696 -0400,
guy,blue,0,1,0,0,1,m,,,,,,,,,,,,,0,5,5,3,51.02082606599288,,,,,,,,,,,,,,,,,,,,,,,,,,,,,,,,,,,,,,,,,,,,,,,,,,,,,,,,,,,51.00739744599559,51.52181453499361,51.52181453499361,52.0757382879965,f,0,0.5494816690043081,None,,,,,,,,074071,001,2024-05-10_18h03.49.239,stroop experiment,2024.1.4,None,2024-05-10 18h03.58.484696 -0400,
man,pink,0,0,1,0,1,m,,,,,,,,,,,,,0,6,6,11,52.08979340299993,,,,,,,,,,,,,,,,,,,,,,,,,,,,,,,,,,,,,,,,,,,,,,,,,,,,,,,,,,,52.076545625997824,52.58801807799318,52.58801807799318,53.389933803999156,m,1,0.7900946169975214,None,,,,,,,,074071,001,2024-05-10_18h03.49.239,stroop experiment,2024.1.4,None,2024-05-10 18h03.58.484696 -0400,
handsome,blue,0,1,0,0,1,m,,,,,,,,,,,,,0,7,7,16,53.40438407599868,,,,,,,,,,,,,,,,,,,,,,,,,,,,,,,,,,,,,,,,,,,,,,,,,,,,,,,,,,,53.39091104299587,53.90451059999759,53.90451059999759,54.40623229299672,f,0,0.4853699739978765,None,,,,,,,,074071,001,2024-05-10_18h03.49.239,stroop experiment,2024.1.4,None,2024-05-10 18h03.58.484696 -0400,
damsel,pink,0,1,0,0,1,f,,,,,,,,,,,,,0,8,8,4,54.42112462599471,,,,,,,,,,,,,,,,,,,,,,,,,,,,,,,,,,,,,,,,,,,,,,,,,,,,,,,,,,,54.407039053992776,54.921102686996164,54.921102686996164,55.88912465899921,f,1,0.9507843329993193,None,,,,,,,,074071,001,2024-05-10_18h03.49.239,stroop experiment,2024.1.4,None,2024-05-10 18h03.58.484696 -0400,
wife,blue,0,0,1,0,1,f,,,,,,,,,,,,,0,9,9,10,55.903832331998274,,,,,,,,,,,,,,,,,,,,,,,,,,,,,,,,,,,,,,,,,,,,,,,,,,,,,,,,,,,55.889651024997875,56.38791075899644,56.38791075899644,57.05926080499921,f,1,0.66691595800512,None,,,,,,,,074071,001,2024-05-10_18h03.49.239,stroop experiment,2024.1.4,None,2024-05-10 18h03.58.484696 -0400,
mother,blue,0,0,1,0,1,f,,,,,,,,,,,,,0,10,10,5,57.074049984999874,,,,,,,,,,,,,,,,,,,,,,,,,,,,,,,,,,,,,,,,,,,,,,,,,,,,,,,,,,,57.06029654999293,57.57161543699476,57.57161543699476,58.058051324995176,f,1,0.4834804380006972,None,,,,,,,,074071,001,2024-05-10_18h03.49.239,stroop experiment,2024.1.4,None,2024-05-10 18h03.58.484696 -0400,
sister,pink,0,1,0,0,1,f,,,,,,,,,,,,,0,11,11,8,58.07267488599609,,,,,,,,,,,,,,,,,,,,,,,,,,,,,,,,,,,,,,,,,,,,,,,,,,,,,,,,,,,58.05888861199492,58.57066121099342,58.57066121099342,59.00858827999764,f,1,0.43345148200023687,None,,,,,,,,074071,001,2024-05-10_18h03.49.239,stroop experiment,2024.1.4,None,2024-05-10 18h03.58.484696 -0400,
lady,blue,0,0,1,0,1,f,,,,,,,,,,,,,0,12,12,19,59.02330420299404,,,,,,,,,,,,,,,,,,,,,,,,,,,,,,,,,,,,,,,,,,,,,,,,,,,,,,,,,,,59.00958096699469,59.521078144993226,59.521078144993226,59.957683037995594,f,1,0.4309167460014578,None,,,,,,,,074071,001,2024-05-10_18h03.49.239,stroop experiment,2024.1.4,None,2024-05-10 18h03.58.484696 -0400,
gentleman,pink,0,0,1,0,1,m,,,,,,,,,,,,,0,13,13,18,59.972411582995846,,,,,,,,,,,,,,,,,,,,,,,,,,,,,,,,,,,,,,,,,,,,,,,,,,,,,,,,,,,59.95859042099619,60.47152071599703,60.47152071599703,60.92333415699977,m,1,0.44355172999348724,None,,,,,,,,074071,001,2024-05-10_18h03.49.239,stroop experiment,2024.1.4,None,2024-05-10 18h03.58.484696 -0400,
nephew,pink,0,0,1,0,1,m,,,,,,,,,,,,,0,14,14,7,60.93772582599922,,,,,,,,,,,,,,,,,,,,,,,,,,,,,,,,,,,,,,,,,,,,,,,,,,,,,,,,,,,60.924150933999044,61.437700714996026,61.437700714996026,61.97332367999479,m,1,0.528283259998716,None,,,,,,,,074071,001,2024-05-10_18h03.49.239,stroop experiment,2024.1.4,None,2024-05-10 18h03.58.484696 -0400,
uncle,blue,0,1,0,0,1,m,,,,,,,,,,,,,0,15,15,1,61.9874412289937,,,,,,,,,,,,,,,,,,,,,,,,,,,,,,,,,,,,,,,,,,,,,,,,,,,,,,,,,,,61.9740147689954,62.4876046559948,62.4876046559948,62.905857877995004,m,1,0.41008699799567694,None,,,,,,,,074071,001,2024-05-10_18h03.49.239,stroop experiment,2024.1.4,None,2024-05-10 18h03.58.484696 -0400,
dad,pink,0,0,1,0,1,m,,,,,,,,,,,,,0,16,16,2,62.920700996997766,,,,,,,,,,,,,,,,,,,,,,,,,,,,,,,,,,,,,,,,,,,,,,,,,,,,,,,,,,,62.90655134899862,63.42118407399539,63.42118407399539,64.0563245289959,m,1,0.627082530001644,None,,,,,,,,074071,001,2024-05-10_18h03.49.239,stroop experiment,2024.1.4,None,2024-05-10 18h03.58.484696 -0400,
aunt,pink,0,1,0,0,1,f,,,,,,,,,,,,,0,17,17,0,64.07131465999555,,,,,,,,,,,,,,,,,,,,,,,,,,,,,,,,,,,,,,,,,,,,,,,,,,,,,,,,,,,64.05692063999595,64.57089330899908,64.57089330899908,65.02402280399838,f,1,0.4485579879983561,None,,,,,,,,074071,001,2024-05-10_18h03.49.239,stroop experiment,2024.1.4,None,2024-05-10 18h03.58.484696 -0400,
female,blue,0,0,1,0,1,f,,,,,,,,,,,,,0,18,18,6,65.03774000399426,,,,,,,,,,,,,,,,,,,,,,,,,,,,,,,,,,,,,,,,,,,,,,,,,,,,,,,,,,,65.02455552899482,65.53732055,65.53732055,66.207402188993,f,1,0.6639090820026468,None,,,,,,,,074071,001,2024-05-10_18h03.49.239,stroop experiment,2024.1.4,None,2024-05-10 18h03.58.484696 -0400,
boys,pink,0,0,1,0,1,m,,,,,,,,,,,,,0,19,19,15,66.22213274999376,,,,,,,,,,,,,,,,,,,,,,,,,,,,,,,,,,,,,,,,,,,,,,,,,,,,,,,,,,,66.20822411299741,66.72103870399587,66.72103870399587,67.13908717199956,m,1,0.40684574199985946,None,,,,,,,,074071,001,2024-05-10_18h03.49.239,stroop experiment,2024.1.4,None,2024-05-10 18h03.58.484696 -0400,
,,,,,,,,,,,,,,,,,,,,,,,,,,,,,,,,,,,,,,,,,,,,,,,,,,,,,,,,,,,,,,,,,,,,,,,,,,,,,,,,,,,,,,,,,,,67.13951255199936,67.15368922799826,67.15368922799826,67.95736139299697,space,0.7870106929985923,None,074071,001,2024-05-10_18h03.49.239,stroop experiment,2024.1.4,None,2024-05-10 18h03.58.484696 -0400,
