word,color,practice,congruent,incongruent,CN,GC,corrAns,CNpractice.thisRepN,CNpractice.thisTrialN,CNpractice.thisN,CNpractice.thisIndex,CNtrials.thisRepN,CNtrials.thisTrialN,CNtrials.thisN,CNtrials.thisIndex,GCpractice.thisRepN,GCpractice.thisTrialN,GCpractice.thisN,GCpractice.thisIndex,GCtrials.thisRepN,GCtrials.thisTrialN,GCtrials.thisN,GCtrials.thisIndex,thisRow.t,notes,CN_instructions1.started,key_resp_2.started,text.started,CN_instructions1.stopped,key_resp_2.keys,key_resp_2.rt,key_resp_2.duration,CNpracticetrials.started,practicetask1.started,practicetaskkeys.started,CNpracticetrials.stopped,practicetaskkeys.keys,practicetaskkeys.rt,practicetaskkeys.duration,CN_instructions2.started,key_resp.started,instrText.started,CN_instructions2.stopped,key_resp.keys,key_resp.rt,key_resp.duration,colornaming.started,target.started,response.started,colornaming.stopped,response.keys,response.corr,response.rt,response.duration,CNend.started,key_resp_3.started,text_2.started,CNend.stopped,key_resp_3.keys,key_resp_3.rt,key_resp_3.duration,GC_instructions1.started,key_resp_4.started,text_3.started,GC_instructions1.stopped,key_resp_4.keys,key_resp_4.rt,key_resp_4.duration,GCpracticetrials.started,text_6.started,key_resp_8.started,text_6.stopped,GCpracticetrials.stopped,key_resp_8.keys,key_resp_8.rt,key_resp_8.duration,GC_instructions2.started,key_resp_6.started,text_5.started,GC_instructions2.stopped,key_resp_6.keys,key_resp_6.rt,key_resp_6.duration,gendercategorization.started,trial_task_2_text.started,key_resp_5.started,gendercategorization.stopped,key_resp_5.keys,key_resp_5.corr,key_resp_5.rt,key_resp_5.duration,final_message.started,text_4.started,key_resp_7.started,text_4.stopped,final_message.stopped,key_resp_7.keys,key_resp_7.rt,key_resp_7.duration,participant,session,date,expName,psychopyVersion,frameRate,expStart,
,,,,,,,,,,,,,,,,,,,,,,,,,,0.008890356999472715,0.01576757700240705,0.5147749530005967,80.98470892399928,space,80.96222675099852,None,,,,,,,,,,,,,,,,,,,,,,,,,,,,,,,,,,,,,,,,,,,,,,,,,,,,,,,,,,,,,,,,,,,,176696,001,2024-05-11_11h41.28.347,stroop experiment,2024.1.4,None,2024-05-11 11h41.41.834726 -0400,
husband,pink,1,0,1,1,0,b,0,0,0,2,,,,,,,,,,,,,81.02088043300319,,,,,,,,,81.00334519099852,81.49587817500287,81.49587817500287,84.29795364200254,p,2.786236440995708,None,,,,,,,,,,,,,,,,,,,,,,,,,,,,,,,,,,,,,,,,,,,,,,,,,,,,,,,,,,,,,176696,001,2024-05-11_11h41.28.347,stroop experiment,2024.1.4,None,2024-05-11 11h41.41.834726 -0400,
mother,pink,1,1,0,1,0,p,0,1,1,4,,,,,,,,,,,,,84.31370596100169,,,,,,,,,84.29892075499811,84.81297015499877,84.81297015499877,85.34704229499766,p,0.523076014003891,None,,,,,,,,,,,,,,,,,,,,,,,,,,,,,,,,,,,,,,,,,,,,,,,,,,,,,,,,,,,,,176696,001,2024-05-11_11h41.28.347,stroop experiment,2024.1.4,None,2024-05-11 11h41.41.834726 -0400,
boy,blue,1,1,0,1,0,b,0,2,2,1,,,,,,,,,,,,,85.36198216499906,,,,,,,,,85.34757884500141,85.86274106400379,85.86274106400379,87.0311812650034,b,1.1541461489978246,None,,,,,,,,,,,,,,,,,,,,,,,,,,,,,,,,,,,,,,,,,,,,,,,,,,,,,,,,,,,,,176696,001,2024-05-11_11h41.28.347,stroop experiment,2024.1.4,None,2024-05-11 11h41.41.834726 -0400,
female,pink,1,1,0,1,0,p,0,3,3,0,,,,,,,,,,,,,87.04562932000408,,,,,,,,,87.03178874999867,87.54587616599747,87.54587616599747,88.5647480560001,p,1.0035180780032533,None,,,,,,,,,,,,,,,,,,,,,,,,,,,,,,,,,,,,,,,,,,,,,,,,,,,,,,,,,,,,,176696,001,2024-05-11_11h41.28.347,stroop experiment,2024.1.4,None,2024-05-11 11h41.41.834726 -0400,
niece,blue,1,0,1,1,0,b,0,4,4,3,,,,,,,,,,,,,88.57853248200263,,,,,,,,,88.56516124500195,89.07909527899756,89.07909527899756,89.66501623600197,b,0.5716940700003761,None,,,,,,,,,,,,,,,,,,,,,,,,,,,,,,,,,,,,,,,,,,,,,,,,,,,,,,,,,,,,,176696,001,2024-05-11_11h41.28.347,stroop experiment,2024.1.4,None,2024-05-11 11h41.41.834726 -0400,
,,,,,,,,,,,,,,,,,,,,,,,,,,,,,,,,,,,,,,,,89.66546574299718,89.67970040799992,90.17960476100416,94.9977952199988,space,5.312400136994256,None,,,,,,,,,,,,,,,,,,,,,,,,,,,,,,,,,,,,,,,,,,,,,,,,,,,,,,176696,001,2024-05-11_11h41.28.347,stroop experiment,2024.1.4,None,2024-05-11 11h41.41.834726 -0400,
gentleman,pink,0,0,1,1,0,p,,,,,0,0,0,4,,,,,,,,,95.02760935299739,,,,,,,,,,,,,,,,,,,,,,,95.01512342400383,95.5134163679977,95.5134163679977,96.51527123899723,p,1,0.9979862199979834,None,,,,,,,,,,,,,,,,,,,,,,,,,,,,,,,,,,,,,,,,,,,,,,176696,001,2024-05-11_11h41.28.347,stroop experiment,2024.1.4,None,2024-05-11 11h41.41.834726 -0400,
girl,pink,0,1,0,1,0,p,,,,,0,1,1,3,,,,,,,,,96.54442889000347,,,,,,,,,,,,,,,,,,,,,,,96.51671117100341,97.02883102100168,97.02883102100168,97.6634691260042,p,1,0.6223972349980613,None,,,,,,,,,,,,,,,,,,,,,,,,,,,,,,,,,,,,,,,,,,,,,,176696,001,2024-05-11_11h41.28.347,stroop experiment,2024.1.4,None,2024-05-11 11h41.41.834726 -0400,
aunt,blue,0,0,1,1,0,b,,,,,0,2,2,2,,,,,,,,,97.67844386600336,,,,,,,,,,,,,,,,,,,,,,,97.66395439299959,98.18007351800043,98.18007351800043,98.83004415300093,b,1,0.6386780699976953,None,,,,,,,,,,,,,,,,,,,,,,,,,,,,,,,,,,,,,,,,,,,,,,176696,001,2024-05-11_11h41.28.347,stroop experiment,2024.1.4,None,2024-05-11 11h41.41.834726 -0400,
grandma,blue,0,0,1,1,0,b,,,,,0,3,3,15,,,,,,,,,98.84499114799837,,,,,,,,,,,,,,,,,,,,,,,98.83069136399718,99.34545168199838,99.34545168199838,99.76282095399802,b,1,0.40114128300047014,None,,,,,,,,,,,,,,,,,,,,,,,,,,,,,,,,,,,,,,,,,,,,,,176696,001,2024-05-11_11h41.28.347,stroop experiment,2024.1.4,None,2024-05-11 11h41.41.834726 -0400,
grandpa,pink,0,0,1,1,0,b,,,,,0,4,4,5,,,,,,,,,99.77855625600205,,,,,,,,,,,,,,,,,,,,,,,99.76341466599843,100.28839925499778,100.28839925499778,100.69789448100346,p,0,0.4059865580056794,None,,,,,,,,,,,,,,,,,,,,,,,,,,,,,,,,,,,,,,,,,,,,,,176696,001,2024-05-11_11h41.28.347,stroop experiment,2024.1.4,None,2024-05-11 11h41.41.834726 -0400,
male,pink,0,0,1,1,0,p,,,,,0,5,5,8,,,,,,,,,100.71248252499936,,,,,,,,,,,,,,,,,,,,,,,100.69862603199726,101.21189207000134,101.21189207000134,101.6155838429986,p,1,0.3951974869996775,None,,,,,,,,,,,,,,,,,,,,,,,,,,,,,,,,,,,,,,,,,,,,,,176696,001,2024-05-11_11h41.28.347,stroop experiment,2024.1.4,None,2024-05-11 11h41.41.834726 -0400,
maid,blue,0,0,1,1,0,b,,,,,0,6,6,18,,,,,,,,,101.62926044900087,,,,,,,,,,,,,,,,,,,,,,,101.61640479599737,102.1287044569981,102.1287044569981,102.64746270199976,b,1,0.5126638670044485,None,,,,,,,,,,,,,,,,,,,,,,,,,,,,,,,,,,,,,,,,,,,,,,176696,001,2024-05-11_11h41.28.347,stroop experiment,2024.1.4,None,2024-05-11 11h41.41.834726 -0400,
son,blue,0,1,0,1,0,b,,,,,0,7,7,6,,,,,,,,,102.66203784199752,,,,,,,,,,,,,,,,,,,,,,,102.64807185400423,103.16288369500398,103.16288369500398,103.56563632000325,b,1,0.39986149199830834,None,,,,,,,,,,,,,,,,,,,,,,,,,,,,,,,,,,,,,,,,,,,,,,176696,001,2024-05-11_11h41.28.347,stroop experiment,2024.1.4,None,2024-05-11 11h41.41.834726 -0400,
uncle,blue,0,1,0,1,0,b,,,,,0,8,8,1,,,,,,,,,103.58004286800133,,,,,,,,,,,,,,,,,,,,,,,103.56640528100252,104.07966472300177,104.07966472300177,104.44740674700006,b,1,0.3548995599994669,None,,,,,,,,,,,,,,,,,,,,,,,,,,,,,,,,,,,,,,,,,,,,,,176696,001,2024-05-11_11h41.28.347,stroop experiment,2024.1.4,None,2024-05-11 11h41.41.834726 -0400,
guy,blue,0,1,0,1,0,b,,,,,0,9,9,17,,,,,,,,,104.4623591319978,,,,,,,,,,,,,,,,,,,,,,,104.4481870410018,104.9632693800013,104.9632693800013,105.3143450360003,b,1,0.33604652500071097,None,,,,,,,,,,,,,,,,,,,,,,,,,,,,,,,,,,,,,,,,,,,,,,176696,001,2024-05-11_11h41.28.347,stroop experiment,2024.1.4,None,2024-05-11 11h41.41.834726 -0400,
nephew,pink,0,0,1,1,0,p,,,,,0,10,10,19,,,,,,,,,105.33003672499763,,,,,,,,,,,,,,,,,,,,,,,105.31519020599808,105.82870893899963,105.82870893899963,106.28248864100169,p,1,0.45087180500559043,None,,,,,,,,,,,,,,,,,,,,,,,,,,,,,,,,,,,,,,,,,,,,,,176696,001,2024-05-11_11h41.28.347,stroop experiment,2024.1.4,None,2024-05-11 11h41.41.834726 -0400,
daughter,pink,0,1,0,1,0,p,,,,,0,11,11,10,,,,,,,,,106.2977409649975,,,,,,,,,,,,,,,,,,,,,,,106.28333547800139,106.7957759100027,106.7957759100027,107.26359438300278,p,1,0.45908618300018134,None,,,,,,,,,,,,,,,,,,,,,,,,,,,,,,,,,,,,,,,,,,,,,,176696,001,2024-05-11_11h41.28.347,stroop experiment,2024.1.4,None,2024-05-11 11h41.41.834726 -0400,
wife,blue,0,0,1,1,0,b,,,,,0,12,12,7,,,,,,,,,107.27837658300268,,,,,,,,,,,,,,,,,,,,,,,107.26431387600314,107.76298360800138,107.76298360800138,108.24777601499954,b,1,0.4791081610019319,None,,,,,,,,,,,,,,,,,,,,,,,,,,,,,,,,,,,,,,,,,,,,,,176696,001,2024-05-11_11h41.28.347,stroop experiment,2024.1.4,None,2024-05-11 11h41.41.834726 -0400,
female,pink,0,1,0,1,0,p,,,,,0,13,13,0,,,,,,,,,108.26282569199975,,,,,,,,,,,,,,,,,,,,,,,108.24834925000323,108.76265961700119,108.76265961700119,109.19766666799842,b,0,0.4312824510052451,None,,,,,,,,,,,,,,,,,,,,,,,,,,,,,,,,,,,,,,,,,,,,,,176696,001,2024-05-11_11h41.28.347,stroop experiment,2024.1.4,None,2024-05-11 11h41.41.834726 -0400,
lady,pink,0,1,0,1,0,p,,,,,0,14,14,16,,,,,,,,,109.21232455700374,,,,,,,,,,,,,,,,,,,,,,,109.19836933100305,109.71240298300108,109.71240298300108,110.6148347979979,p,1,0.8863921059964923,None,,,,,,,,,,,,,,,,,,,,,,,,,,,,,,,,,,,,,,,,,,,,,,176696,001,2024-05-11_11h41.28.347,stroop experiment,2024.1.4,None,2024-05-11 11h41.41.834726 -0400,
dad,pink,0,0,1,1,0,p,,,,,0,15,15,14,,,,,,,,,110.62874534999719,,,,,,,,,,,,,,,,,,,,,,,110.61564686700149,111.12984544400388,111.12984544400388,111.58129379100137,p,1,0.4377483460048097,None,,,,,,,,,,,,,,,,,,,,,,,,,,,,,,,,,,,,,,,,,,,,,,176696,001,2024-05-11_11h41.28.347,stroop experiment,2024.1.4,None,2024-05-11 11h41.41.834726 -0400,
father,blue,0,1,0,1,0,b,,,,,0,16,16,9,,,,,,,,,111.5953263650008,,,,,,,,,,,,,,,,,,,,,,,111.58190297299734,112.09666097599984,112.09666097599984,112.53176180700393,b,1,0.4233243089984171,None,,,,,,,,,,,,,,,,,,,,,,,,,,,,,,,,,,,,,,,,,,,,,,176696,001,2024-05-11_11h41.28.347,stroop experiment,2024.1.4,None,2024-05-11 11h41.41.834726 -0400,
handsome,blue,0,1,0,1,0,b,,,,,0,17,17,12,,,,,,,,,112.54618499500066,,,,,,,,,,,,,,,,,,,,,,,112.53248896099831,113.04635562199837,113.04635562199837,113.51674690800428,b,1,0.46702486400317866,None,,,,,,,,,,,,,,,,,,,,,,,,,,,,,,,,,,,,,,,,,,,,,,176696,001,2024-05-11_11h41.28.347,stroop experiment,2024.1.4,None,2024-05-11 11h41.41.834726 -0400,
sister,pink,0,1,0,1,0,p,,,,,0,18,18,13,,,,,,,,,113.53146334199846,,,,,,,,,,,,,,,,,,,,,,,113.51759601700178,114.02869635800016,114.02869635800016,114.56339406200277,p,1,0.5198985340030049,None,,,,,,,,,,,,,,,,,,,,,,,,,,,,,,,,,,,,,,,,,,,,,,176696,001,2024-05-11_11h41.28.347,stroop experiment,2024.1.4,None,2024-05-11 11h41.41.834726 -0400,
damsel,blue,0,0,1,1,0,b,,,,,0,19,19,11,,,,,,,,,114.57843952500116,,,,,,,,,,,,,,,,,,,,,,,114.56392469500133,115.07849945600174,115.07849945600174,115.64789353700326,b,1,0.5612466519960435,None,,,,,,,,,,,,,,,,,,,,,,,,,,,,,,,,,,,,,,,,,,,,,,176696,001,2024-05-11_11h41.28.347,stroop experiment,2024.1.4,None,2024-05-11 11h41.41.834726 -0400,
,,,,,,,,,,,,,,,,,,,,,,,,,,,,,,,,,,,,,,,,,,,,,,,,,,,,,,,115.64828771400062,115.66207308100275,116.16190841200296,117.26353201799793,space,1.5925567949961987,None,,,,,,,,,,,,,,,,,,,,,,,,,,,,,,,,,,,,,,,176696,001,2024-05-11_11h41.28.347,stroop experiment,2024.1.4,None,2024-05-11 11h41.41.834726 -0400,
,,,,,,,,,,,,,,,,,,,,,,,,,,,,,,,,,,,,,,,,,,,,,,,,,,,,,,,,,,,,,,117.26356164400204,117.27909040899976,117.76160952499777,173.84446172200114,space,56.54744076899806,None,,,,,,,,,,,,,,,,,,,,,,,,,,,,,,,,176696,001,2024-05-11_11h41.28.347,stroop experiment,2024.1.4,None,2024-05-11 11h41.41.834726 -0400,
dad,pink,1,0,1,0,1,m,,,,,,,,,0,0,0,1,,,,,173.8769370950031,,,,,,,,,,,,,,,,,,,,,,,,,,,,,,,,,,,,,,,,,,,,,173.85966876999737,174.34619878500234,174.34619878500234,178.36208983600227,186.11257545300032,f,11.75829726899974,None,,,,,,,,,,,,,,,,,,,,,,,,176696,001,2024-05-11_11h41.28.347,stroop experiment,2024.1.4,None,2024-05-11 11h41.41.834726 -0400,
mother,pink,1,1,0,0,1,f,,,,,,,,,0,1,1,3,,,,,186.1268987939984,,,,,,,,,,,,,,,,,,,,,,,,,,,,,,,,,,,,,,,,,,,,,186.1131233019987,186.62772435900115,186.62772435900115,,188.179736418002,f,1.5464744869968854,None,,,,,,,,,,,,,,,,,,,,,,,,176696,001,2024-05-11_11h41.28.347,stroop experiment,2024.1.4,None,2024-05-11 11h41.41.834726 -0400,
female,blue,1,0,1,0,1,f,,,,,,,,,0,2,2,2,,,,,188.19426737900358,,,,,,,,,,,,,,,,,,,,,,,,,,,,,,,,,,,,,,,,,,,,,188.18012378500134,188.69478324599913,188.69478324599913,,190.52975332300412,f,1.8218632690040977,None,,,,,,,,,,,,,,,,,,,,,,,,176696,001,2024-05-11_11h41.28.347,stroop experiment,2024.1.4,None,2024-05-11 11h41.41.834726 -0400,
aunt,blue,1,0,1,0,1,f,,,,,,,,,0,3,3,0,,,,,190.54367922600068,,,,,,,,,,,,,,,,,,,,,,,,,,,,,,,,,,,,,,,,,,,,,190.53022690000216,191.04415539599722,191.04415539599722,,192.06448923800053,f,1.0176580309998826,None,,,,,,,,,,,,,,,,,,,,,,,,176696,001,2024-05-11_11h41.28.347,stroop experiment,2024.1.4,None,2024-05-11 11h41.41.834726 -0400,
man,blue,1,1,0,0,1,m,,,,,,,,,0,4,4,4,,,,,192.0932548990022,,,,,,,,,,,,,,,,,,,,,,,,,,,,,,,,,,,,,,,,,,,,,192.06524312600231,192.57838110900047,192.57838110900047,196.57804703200236,196.62877173499874,m,4.038363219995517,None,,,,,,,,,,,,,,,,,,,,,,,,176696,001,2024-05-11_11h41.28.347,stroop experiment,2024.1.4,None,2024-05-11 11h41.41.834726 -0400,
,,,,,,,,,,,,,,,,,,,,,,,,,,,,,,,,,,,,,,,,,,,,,,,,,,,,,,,,,,,,,,,,,,,,,,,,,,,,,196.62910424599977,196.64406474400312,197.12739429700014,203.76359681099711,space,7.113533705000009,None,,,,,,,,,,,,,,,,,176696,001,2024-05-11_11h41.28.347,stroop experiment,2024.1.4,None,2024-05-11 11h41.41.834726 -0400,
madam,pink,0,1,0,0,1,f,,,,,,,,,,,,,0,0,0,17,203.79658446800022,,,,,,,,,,,,,,,,,,,,,,,,,,,,,,,,,,,,,,,,,,,,,,,,,,,,,,,,,,,,203.78592964400013,204.2780417670001,204.2780417670001,205.08120116899954,f,1,0.7969089090038324,None,,,,,,,,,176696,001,2024-05-11_11h41.28.347,stroop experiment,2024.1.4,None,2024-05-11 11h41.41.834726 -0400,
guy,blue,0,1,0,0,1,m,,,,,,,,,,,,,0,1,1,3,205.0973670700041,,,,,,,,,,,,,,,,,,,,,,,,,,,,,,,,,,,,,,,,,,,,,,,,,,,,,,,,,,,,205.08232827900065,205.5950936759982,205.5950936759982,206.21246839500236,m,1,0.6016640469970298,None,,,,,,,,,176696,001,2024-05-11_11h41.28.347,stroop experiment,2024.1.4,None,2024-05-11 11h41.41.834726 -0400,
lady,blue,0,0,1,0,1,f,,,,,,,,,,,,,0,2,2,19,206.22718985900428,,,,,,,,,,,,,,,,,,,,,,,,,,,,,,,,,,,,,,,,,,,,,,,,,,,,,,,,,,,,206.2131845440017,206.72753796500183,206.72753796500183,207.99661459799972,f,1,1.2572711489992798,None,,,,,,,,,176696,001,2024-05-11_11h41.28.347,stroop experiment,2024.1.4,None,2024-05-11 11h41.41.834726 -0400,
wife,blue,0,0,1,0,1,f,,,,,,,,,,,,,0,3,3,10,208.01096499899722,,,,,,,,,,,,,,,,,,,,,,,,,,,,,,,,,,,,,,,,,,,,,,,,,,,,,,,,,,,,207.99731004000205,208.5104730489984,208.5104730489984,210.79648589700082,f,1,2.27694249599881,None,,,,,,,,,176696,001,2024-05-11_11h41.28.347,stroop experiment,2024.1.4,None,2024-05-11 11h41.41.834726 -0400,
uncle,blue,0,1,0,0,1,m,,,,,,,,,,,,,0,4,4,1,210.81230161499843,,,,,,,,,,,,,,,,,,,,,,,,,,,,,,,,,,,,,,,,,,,,,,,,,,,,,,,,,,,,210.79733253800077,211.3109424849972,211.3109424849972,212.41213789999892,m,1,1.0904798389965435,None,,,,,,,,,176696,001,2024-05-11_11h41.28.347,stroop experiment,2024.1.4,None,2024-05-11 11h41.41.834726 -0400,
aunt,pink,0,1,0,0,1,f,,,,,,,,,,,,,0,5,5,0,212.42731379400357,,,,,,,,,,,,,,,,,,,,,,,,,,,,,,,,,,,,,,,,,,,,,,,,,,,,,,,,,,,,212.41272962099902,212.91058975700435,212.91058975700435,213.56267857400235,f,1,0.640455775996088,None,,,,,,,,,176696,001,2024-05-11_11h41.28.347,stroop experiment,2024.1.4,None,2024-05-11 11h41.41.834726 -0400,
daughter,blue,0,0,1,0,1,f,,,,,,,,,,,,,0,6,6,14,213.57714156200382,,,,,,,,,,,,,,,,,,,,,,,,,,,,,,,,,,,,,,,,,,,,,,,,,,,,,,,,,,,,213.56336349800404,214.07712220100075,214.07712220100075,214.87980578200222,f,1,0.7951168099971255,None,,,,,,,,,176696,001,2024-05-11_11h41.28.347,stroop experiment,2024.1.4,None,2024-05-11 11h41.41.834726 -0400,
girls,pink,0,1,0,0,1,f,,,,,,,,,,,,,0,7,7,12,214.89568570600386,,,,,,,,,,,,,,,,,,,,,,,,,,,,,,,,,,,,,,,,,,,,,,,,,,,,,,,,,,,,214.88061980900238,215.39419064499816,215.39419064499816,216.1316483510018,f,1,0.7319729390001157,None,,,,,,,,,176696,001,2024-05-11_11h41.28.347,stroop experiment,2024.1.4,None,2024-05-11 11h41.41.834726 -0400,
gentleman,pink,0,0,1,0,1,m,,,,,,,,,,,,,0,8,8,18,216.1458130079991,,,,,,,,,,,,,,,,,,,,,,,,,,,,,,,,,,,,,,,,,,,,,,,,,,,,,,,,,,,,216.13246131900087,216.64390575900325,216.64390575900325,217.3148961659972,m,1,0.6651769919990329,None,,,,,,,,,176696,001,2024-05-11_11h41.28.347,stroop experiment,2024.1.4,None,2024-05-11 11h41.41.834726 -0400,
father,blue,0,1,0,0,1,m,,,,,,,,,,,,,0,9,9,13,217.3292711440008,,,,,,,,,,,,,,,,,,,,,,,,,,,,,,,,,,,,,,,,,,,,,,,,,,,,,,,,,,,,217.3156963500005,217.82706756900006,217.82706756900006,218.52990675099863,m,1,0.6872275129935588,None,,,,,,,,,176696,001,2024-05-11_11h41.28.347,stroop experiment,2024.1.4,None,2024-05-11 11h41.41.834726 -0400,
female,blue,0,0,1,0,1,f,,,,,,,,,,,,,0,10,10,6,218.54430072499963,,,,,,,,,,,,,,,,,,,,,,,,,,,,,,,,,,,,,,,,,,,,,,,,,,,,,,,,,,,,218.53078257999732,219.0437401070012,219.0437401070012,219.97892051200324,f,1,0.9222559859990724,None,,,,,,,,,176696,001,2024-05-11_11h41.28.347,stroop experiment,2024.1.4,None,2024-05-11 11h41.41.834726 -0400,
man,pink,0,0,1,0,1,m,,,,,,,,,,,,,0,11,11,11,219.9932935800025,,,,,,,,,,,,,,,,,,,,,,,,,,,,,,,,,,,,,,,,,,,,,,,,,,,,,,,,,,,,219.9793349620013,220.49383813200257,220.49383813200257,221.22813364600006,m,1,0.723301291000098,None,,,,,,,,,176696,001,2024-05-11_11h41.28.347,stroop experiment,2024.1.4,None,2024-05-11 11h41.41.834726 -0400,
man,blue,0,1,0,0,1,m,,,,,,,,,,,,,0,12,12,9,221.24419438800396,,,,,,,,,,,,,,,,,,,,,,,,,,,,,,,,,,,,,,,,,,,,,,,,,,,,,,,,,,,,221.2286183410033,221.74435758699838,221.74435758699838,222.52917003400216,m,1,0.7727447770012077,None,,,,,,,,,176696,001,2024-05-11_11h41.28.347,stroop experiment,2024.1.4,None,2024-05-11 11h41.41.834726 -0400,
damsel,pink,0,1,0,0,1,f,,,,,,,,,,,,,0,13,13,4,222.54369088800013,,,,,,,,,,,,,,,,,,,,,,,,,,,,,,,,,,,,,,,,,,,,,,,,,,,,,,,,,,,,222.52999091200036,223.04412541499914,223.04412541499914,223.72904032099905,f,1,0.6705491600005189,None,,,,,,,,,176696,001,2024-05-11_11h41.28.347,stroop experiment,2024.1.4,None,2024-05-11 11h41.41.834726 -0400,
sister,pink,0,1,0,0,1,f,,,,,,,,,,,,,0,14,14,8,223.7433937780006,,,,,,,,,,,,,,,,,,,,,,,,,,,,,,,,,,,,,,,,,,,,,,,,,,,,,,,,,,,,223.7294617200023,224.24348468799872,224.24348468799872,224.76443077200383,f,1,0.5143481400009478,None,,,,,,,,,176696,001,2024-05-11_11h41.28.347,stroop experiment,2024.1.4,None,2024-05-11 11h41.41.834726 -0400,
mother,blue,0,0,1,0,1,f,,,,,,,,,,,,,0,15,15,5,224.780267619004,,,,,,,,,,,,,,,,,,,,,,,,,,,,,,,,,,,,,,,,,,,,,,,,,,,,,,,,,,,,224.76522678900074,225.2776489539974,225.2776489539974,225.86448004499834,m,0,0.5817084160007653,None,,,,,,,,,176696,001,2024-05-11_11h41.28.347,stroop experiment,2024.1.4,None,2024-05-11 11h41.41.834726 -0400,
boys,pink,0,0,1,0,1,m,,,,,,,,,,,,,0,16,16,15,225.88040071399882,,,,,,,,,,,,,,,,,,,,,,,,,,,,,,,,,,,,,,,,,,,,,,,,,,,,,,,,,,,,225.86529992600117,226.37809460199787,226.37809460199787,227.2451990940026,m,1,0.8513724389995332,None,,,,,,,,,176696,001,2024-05-11_11h41.28.347,stroop experiment,2024.1.4,None,2024-05-11 11h41.41.834726 -0400,
handsome,blue,0,1,0,0,1,m,,,,,,,,,,,,,0,17,17,16,227.2601702250031,,,,,,,,,,,,,,,,,,,,,,,,,,,,,,,,,,,,,,,,,,,,,,,,,,,,,,,,,,,,227.2457431310031,227.74370356000145,227.74370356000145,230.0800304229997,m,1,2.3202759269988746,None,,,,,,,,,176696,001,2024-05-11_11h41.28.347,stroop experiment,2024.1.4,None,2024-05-11 11h41.41.834726 -0400,
nephew,pink,0,0,1,0,1,m,,,,,,,,,,,,,0,18,18,7,230.0967612700042,,,,,,,,,,,,,,,,,,,,,,,,,,,,,,,,,,,,,,,,,,,,,,,,,,,,,,,,,,,,230.0808991390004,230.59340891399916,230.59340891399916,233.43031202300335,m,1,2.8313809510000283,None,,,,,,,,,176696,001,2024-05-11_11h41.28.347,stroop experiment,2024.1.4,None,2024-05-11 11h41.41.834726 -0400,
dad,pink,0,0,1,0,1,m,,,,,,,,,,,,,0,19,19,2,233.44462110599852,,,,,,,,,,,,,,,,,,,,,,,,,,,,,,,,,,,,,,,,,,,,,,,,,,,,,,,,,,,,233.43150246000005,233.9438499090029,233.9438499090029,235.73093581399735,m,1,1.7773274619976291,None,,,,,,,,,176696,001,2024-05-11_11h41.28.347,stroop experiment,2024.1.4,None,2024-05-11 11h41.41.834726 -0400,
,,,,,,,,,,,,,,,,,,,,,,,,,,,,,,,,,,,,,,,,,,,,,,,,,,,,,,,,,,,,,,,,,,,,,,,,,,,,,,,,,,,,,,,,,,,,235.7315124559973,235.74561272899882,235.74561272899882,236.7605874400033,241.19548091800243,space,5.438123048006673,None,176696,001,2024-05-11_11h41.28.347,stroop experiment,2024.1.4,None,2024-05-11 11h41.41.834726 -0400,
