word,color,practice,congruent,incongruent,CN,GC,corrAns,CNpractice.thisRepN,CNpractice.thisTrialN,CNpractice.thisN,CNpractice.thisIndex,CNtrials.thisRepN,CNtrials.thisTrialN,CNtrials.thisN,CNtrials.thisIndex,GCpractice.thisRepN,GCpractice.thisTrialN,GCpractice.thisN,GCpractice.thisIndex,GCtrials.thisRepN,GCtrials.thisTrialN,GCtrials.thisN,GCtrials.thisIndex,thisRow.t,notes,CN_instructions1.started,key_resp_2.started,text.started,CN_instructions1.stopped,key_resp_2.keys,key_resp_2.rt,key_resp_2.duration,CNpracticetrials.started,practicetask1.started,practicetaskkeys.started,CNpracticetrials.stopped,practicetaskkeys.keys,practicetaskkeys.rt,practicetaskkeys.duration,CN_instructions2.started,key_resp.started,instrText.started,CN_instructions2.stopped,key_resp.keys,key_resp.rt,key_resp.duration,colornaming.started,target.started,response.started,colornaming.stopped,response.keys,response.corr,response.rt,response.duration,CNend.started,key_resp_3.started,text_2.started,CNend.stopped,key_resp_3.keys,key_resp_3.rt,key_resp_3.duration,GC_instructions1.started,key_resp_4.started,text_3.started,GC_instructions1.stopped,key_resp_4.keys,key_resp_4.rt,key_resp_4.duration,GCpracticetrials.started,text_6.started,key_resp_8.started,GCpracticetrials.stopped,key_resp_8.keys,key_resp_8.rt,key_resp_8.duration,GC_instructions2.started,key_resp_6.started,text_5.started,GC_instructions2.stopped,key_resp_6.keys,key_resp_6.rt,key_resp_6.duration,gendercategorization.started,trial_task_2_text.started,key_resp_5.started,gendercategorization.stopped,key_resp_5.keys,key_resp_5.corr,key_resp_5.rt,key_resp_5.duration,final_message.started,text_4.started,key_resp_7.started,text_4.stopped,final_message.stopped,key_resp_7.keys,key_resp_7.rt,key_resp_7.duration,participant,session,date,expName,psychopyVersion,frameRate,expStart,
,,,,,,,,,,,,,,,,,,,,,,,,,,0.008283789000415709,0.016820934004499577,0.5151582690014038,16.668088987004012,space,16.6188223930003,None,,,,,,,,,,,,,,,,,,,,,,,,,,,,,,,,,,,,,,,,,,,,,,,,,,,,,,,,,,,,,,,,,,,193580,001,2024-05-10_17h47.56.415,stroop experiment,2024.1.4,None,2024-05-10 17h49.09.263139 -0400,
female,pink,1,1,0,1,0,p,0,0,0,0,,,,,,,,,,,,,16.701974127005087,,,,,,,,,16.686254045998794,17.178021313004137,17.178021313004137,18.4472056529994,p,1.25439615000505,None,,,,,,,,,,,,,,,,,,,,,,,,,,,,,,,,,,,,,,,,,,,,,,,,,,,,,,,,,,,,193580,001,2024-05-10_17h47.56.415,stroop experiment,2024.1.4,None,2024-05-10 17h49.09.263139 -0400,
husband,pink,1,0,1,1,0,b,0,1,1,2,,,,,,,,,,,,,18.46614974000113,,,,,,,,,18.450831867005036,18.963323797004705,18.963323797004705,19.61469720500463,p,0.644889385002898,None,,,,,,,,,,,,,,,,,,,,,,,,,,,,,,,,,,,,,,,,,,,,,,,,,,,,,,,,,,,,193580,001,2024-05-10_17h47.56.415,stroop experiment,2024.1.4,None,2024-05-10 17h49.09.263139 -0400,
niece,blue,1,0,1,1,0,b,0,2,2,3,,,,,,,,,,,,,19.63432605100388,,,,,,,,,19.61541729199962,20.127950336005597,20.127950336005597,21.046216569004173,b,0.9091134629998123,None,,,,,,,,,,,,,,,,,,,,,,,,,,,,,,,,,,,,,,,,,,,,,,,,,,,,,,,,,,,,193580,001,2024-05-10_17h47.56.415,stroop experiment,2024.1.4,None,2024-05-10 17h49.09.263139 -0400,
mother,pink,1,1,0,1,0,p,0,3,3,4,,,,,,,,,,,,,21.061588939999638,,,,,,,,,21.046935370002757,21.561118739002268,21.561118739002268,22.284483272000216,p,0.7014929159995518,None,,,,,,,,,,,,,,,,,,,,,,,,,,,,,,,,,,,,,,,,,,,,,,,,,,,,,,,,,,,,193580,001,2024-05-10_17h47.56.415,stroop experiment,2024.1.4,None,2024-05-10 17h49.09.263139 -0400,
boy,blue,1,1,0,1,0,b,0,4,4,1,,,,,,,,,,,,,22.301354711002205,,,,,,,,,22.28631456700532,22.795623240999703,22.795623240999703,23.448124432004988,b,0.6370641859975876,None,,,,,,,,,,,,,,,,,,,,,,,,,,,,,,,,,,,,,,,,,,,,,,,,,,,,,,,,,,,,193580,001,2024-05-10_17h47.56.415,stroop experiment,2024.1.4,None,2024-05-10 17h49.09.263139 -0400,
,,,,,,,,,,,,,,,,,,,,,,,,,,,,,,,,,,,,,,,,23.448787122004433,23.462922575003176,23.961818408002728,25.7962969920045,space,2.3188769339976716,None,,,,,,,,,,,,,,,,,,,,,,,,,,,,,,,,,,,,,,,,,,,,,,,,,,,,,193580,001,2024-05-10_17h47.56.415,stroop experiment,2024.1.4,None,2024-05-10 17h49.09.263139 -0400,
lady,pink,0,1,0,1,0,p,,,,,0,0,0,16,,,,,,,,,25.827611822998733,,,,,,,,,,,,,,,,,,,,,,,25.816964165998797,26.29439185099909,26.29439185099909,26.729007131005346,p,1,0.4200103469993337,None,,,,,,,,,,,,,,,,,,,,,,,,,,,,,,,,,,,,,,,,,,,,,193580,001,2024-05-10_17h47.56.415,stroop experiment,2024.1.4,None,2024-05-10 17h49.09.263139 -0400,
female,pink,0,1,0,1,0,p,,,,,0,1,1,0,,,,,,,,,26.74385808300576,,,,,,,,,,,,,,,,,,,,,,,26.72979241500434,27.228671806005877,27.228671806005877,27.629636927005777,p,1,0.3833806260008714,None,,,,,,,,,,,,,,,,,,,,,,,,,,,,,,,,,,,,,,,,,,,,,193580,001,2024-05-10_17h47.56.415,stroop experiment,2024.1.4,None,2024-05-10 17h49.09.263139 -0400,
handsome,blue,0,1,0,1,0,b,,,,,0,2,2,12,,,,,,,,,27.644598222999775,,,,,,,,,,,,,,,,,,,,,,,27.630638173002808,28.144243517999712,28.144243517999712,28.513432489002298,b,1,0.35739699499390554,None,,,,,,,,,,,,,,,,,,,,,,,,,,,,,,,,,,,,,,,,,,,,,193580,001,2024-05-10_17h47.56.415,stroop experiment,2024.1.4,None,2024-05-10 17h49.09.263139 -0400,
sister,pink,0,1,0,1,0,p,,,,,0,3,3,13,,,,,,,,,28.527836172004754,,,,,,,,,,,,,,,,,,,,,,,28.514104963003774,29.02840874100366,29.02840874100366,29.531947657000273,p,1,0.5005430879973574,None,,,,,,,,,,,,,,,,,,,,,,,,,,,,,,,,,,,,,,,,,,,,,193580,001,2024-05-10_17h47.56.415,stroop experiment,2024.1.4,None,2024-05-10 17h49.09.263139 -0400,
son,blue,0,1,0,1,0,b,,,,,0,4,4,6,,,,,,,,,29.5465935300017,,,,,,,,,,,,,,,,,,,,,,,29.532924024999375,30.044134806004877,30.044134806004877,30.530514672005665,b,1,0.46851918100583134,None,,,,,,,,,,,,,,,,,,,,,,,,,,,,,,,,,,,,,,,,,,,,,193580,001,2024-05-10_17h47.56.415,stroop experiment,2024.1.4,None,2024-05-10 17h49.09.263139 -0400,
uncle,blue,0,1,0,1,0,b,,,,,0,5,5,1,,,,,,,,,30.544140948004497,,,,,,,,,,,,,,,,,,,,,,,30.531194006005535,31.045711134000157,31.045711134000157,31.547129360005783,b,1,0.495392320000974,None,,,,,,,,,,,,,,,,,,,,,,,,,,,,,,,,,,,,,,,,,,,,,193580,001,2024-05-10_17h47.56.415,stroop experiment,2024.1.4,None,2024-05-10 17h49.09.263139 -0400,
daughter,pink,0,1,0,1,0,p,,,,,0,6,6,10,,,,,,,,,31.561360962004983,,,,,,,,,,,,,,,,,,,,,,,31.547921871002472,32.062337891002244,32.062337891002244,32.44732232900424,p,1,0.37454476099810563,None,,,,,,,,,,,,,,,,,,,,,,,,,,,,,,,,,,,,,,,,,,,,,193580,001,2024-05-10_17h47.56.415,stroop experiment,2024.1.4,None,2024-05-10 17h49.09.263139 -0400,
girl,pink,0,1,0,1,0,p,,,,,0,7,7,3,,,,,,,,,32.461083084002894,,,,,,,,,,,,,,,,,,,,,,,32.44826829199883,32.9606794440042,32.9606794440042,33.463100911001675,p,1,0.48894013700191863,None,,,,,,,,,,,,,,,,,,,,,,,,,,,,,,,,,,,,,,,,,,,,,193580,001,2024-05-10_17h47.56.415,stroop experiment,2024.1.4,None,2024-05-10 17h49.09.263139 -0400,
damsel,blue,0,0,1,1,0,b,,,,,0,8,8,11,,,,,,,,,33.47810155300249,,,,,,,,,,,,,,,,,,,,,,,33.46389495200128,33.97826384400105,33.97826384400105,34.54758107300586,b,1,0.5590893749977113,None,,,,,,,,,,,,,,,,,,,,,,,,,,,,,,,,,,,,,,,,,,,,,193580,001,2024-05-10_17h47.56.415,stroop experiment,2024.1.4,None,2024-05-10 17h49.09.263139 -0400,
gentleman,pink,0,0,1,1,0,p,,,,,0,9,9,4,,,,,,,,,34.56513611200353,,,,,,,,,,,,,,,,,,,,,,,34.548598637004034,35.062047583000094,35.062047583000094,35.61442463000276,p,1,0.5461508610023884,None,,,,,,,,,,,,,,,,,,,,,,,,,,,,,,,,,,,,,,,,,,,,,193580,001,2024-05-10_17h47.56.415,stroop experiment,2024.1.4,None,2024-05-10 17h49.09.263139 -0400,
grandma,blue,0,0,1,1,0,b,,,,,0,10,10,15,,,,,,,,,35.63138858900493,,,,,,,,,,,,,,,,,,,,,,,35.61547771500045,36.12818700999924,36.12818700999924,36.57969337100076,b,1,0.44309926200367045,None,,,,,,,,,,,,,,,,,,,,,,,,,,,,,,,,,,,,,,,,,,,,,193580,001,2024-05-10_17h47.56.415,stroop experiment,2024.1.4,None,2024-05-10 17h49.09.263139 -0400,
male,pink,0,0,1,1,0,p,,,,,0,11,11,8,,,,,,,,,36.59381919300358,,,,,,,,,,,,,,,,,,,,,,,36.58021566500247,37.09580948400253,37.09580948400253,37.46361952100415,p,1,0.3621774870043737,None,,,,,,,,,,,,,,,,,,,,,,,,,,,,,,,,,,,,,,,,,,,,,193580,001,2024-05-10_17h47.56.415,stroop experiment,2024.1.4,None,2024-05-10 17h49.09.263139 -0400,
nephew,pink,0,0,1,1,0,p,,,,,0,12,12,19,,,,,,,,,37.47809265700198,,,,,,,,,,,,,,,,,,,,,,,37.464357668002776,37.97832251100044,37.97832251100044,38.38039432900405,p,1,0.38673433599615237,None,,,,,,,,,,,,,,,,,,,,,,,,,,,,,,,,,,,,,,,,,,,,,193580,001,2024-05-10_17h47.56.415,stroop experiment,2024.1.4,None,2024-05-10 17h49.09.263139 -0400,
wife,blue,0,0,1,1,0,b,,,,,0,13,13,7,,,,,,,,,38.39417743500235,,,,,,,,,,,,,,,,,,,,,,,38.38112385000568,38.89405464700394,38.89405464700394,39.36341562700545,b,1,0.4571379100016202,None,,,,,,,,,,,,,,,,,,,,,,,,,,,,,,,,,,,,,,,,,,,,,193580,001,2024-05-10_17h47.56.415,stroop experiment,2024.1.4,None,2024-05-10 17h49.09.263139 -0400,
maid,blue,0,0,1,1,0,b,,,,,0,14,14,18,,,,,,,,,39.37843855200481,,,,,,,,,,,,,,,,,,,,,,,39.36443988500105,39.87745548400562,39.87745548400562,40.34694483099884,b,1,0.4664463109947974,None,,,,,,,,,,,,,,,,,,,,,,,,,,,,,,,,,,,,,,,,,,,,,193580,001,2024-05-10_17h47.56.415,stroop experiment,2024.1.4,None,2024-05-10 17h49.09.263139 -0400,
aunt,blue,0,0,1,1,0,b,,,,,0,15,15,2,,,,,,,,,40.360853833000874,,,,,,,,,,,,,,,,,,,,,,,40.34781982000277,40.86110433800059,40.86110433800059,41.29665972899966,b,1,0.42849420299899066,None,,,,,,,,,,,,,,,,,,,,,,,,,,,,,,,,,,,,,,,,,,,,,193580,001,2024-05-10_17h47.56.415,stroop experiment,2024.1.4,None,2024-05-10 17h49.09.263139 -0400,
father,blue,0,1,0,1,0,b,,,,,0,16,16,9,,,,,,,,,41.311360406005406,,,,,,,,,,,,,,,,,,,,,,,41.29745556600392,41.8120899370042,41.8120899370042,42.229588172005606,b,1,0.4011582940001972,None,,,,,,,,,,,,,,,,,,,,,,,,,,,,,,,,,,,,,,,,,,,,,193580,001,2024-05-10_17h47.56.415,stroop experiment,2024.1.4,None,2024-05-10 17h49.09.263139 -0400,
guy,blue,0,1,0,1,0,b,,,,,0,17,17,17,,,,,,,,,42.24453896900377,,,,,,,,,,,,,,,,,,,,,,,42.23037968000426,42.743995039003494,42.743995039003494,43.08056444000249,b,1,0.3312838810015819,None,,,,,,,,,,,,,,,,,,,,,,,,,,,,,,,,,,,,,,,,,,,,,193580,001,2024-05-10_17h47.56.415,stroop experiment,2024.1.4,None,2024-05-10 17h49.09.263139 -0400,
dad,pink,0,0,1,1,0,p,,,,,0,18,18,14,,,,,,,,,43.094205534005596,,,,,,,,,,,,,,,,,,,,,,,43.0814295060045,43.59394228600286,43.59394228600286,43.99714678899909,p,1,0.3971075860026758,None,,,,,,,,,,,,,,,,,,,,,,,,,,,,,,,,,,,,,,,,,,,,,193580,001,2024-05-10_17h47.56.415,stroop experiment,2024.1.4,None,2024-05-10 17h49.09.263139 -0400,
grandpa,pink,0,0,1,1,0,b,,,,,0,19,19,5,,,,,,,,,44.01162060400384,,,,,,,,,,,,,,,,,,,,,,,43.997967521005194,44.51231570100208,44.51231570100208,44.879383543004224,p,0,0.3517587349997484,None,,,,,,,,,,,,,,,,,,,,,,,,,,,,,,,,,,,,,,,,,,,,,193580,001,2024-05-10_17h47.56.415,stroop experiment,2024.1.4,None,2024-05-10 17h49.09.263139 -0400,
,,,,,,,,,,,,,,,,,,,,,,,,,,,,,,,,,,,,,,,,,,,,,,,,,,,,,,,44.87999615800072,44.89406226899882,45.395090178004466,46.378867272003845,space,1.4691044020000845,None,,,,,,,,,,,,,,,,,,,,,,,,,,,,,,,,,,,,,,193580,001,2024-05-10_17h47.56.415,stroop experiment,2024.1.4,None,2024-05-10 17h49.09.263139 -0400,
,,,,,,,,,,,,,,,,,,,,,,,,,,,,,,,,,,,,,,,,,,,,,,,,,,,,,,,,,,,,,,46.378932585001166,46.3941382280027,46.877100479003275,58.281595814005414,space,11.884290444999351,None,,,,,,,,,,,,,,,,,,,,,,,,,,,,,,,193580,001,2024-05-10_17h47.56.415,stroop experiment,2024.1.4,None,2024-05-10 17h49.09.263139 -0400,
aunt,blue,1,0,1,0,1,f,,,,,,,,,0,0,0,0,,,,,58.31001721800567,,,,,,,,,,,,,,,,,,,,,,,,,,,,,,,,,,,,,,,,,,,,,58.29899729400495,58.793822355000884,58.793822355000884,59.68047910000314,f,0.8826235489977989,None,,,,,,,,,,,,,,,,,,,,,,,,193580,001,2024-05-10_17h47.56.415,stroop experiment,2024.1.4,None,2024-05-10 17h49.09.263139 -0400,
mother,pink,1,1,0,0,1,f,,,,,,,,,0,1,1,3,,,,,59.694193649003864,,,,,,,,,,,,,,,,,,,,,,,,,,,,,,,,,,,,,,,,,,,,,59.68150545300159,60.19381937399885,60.19381937399885,60.71391471000243,f,0.5154784209953505,None,,,,,,,,,,,,,,,,,,,,,,,,193580,001,2024-05-10_17h47.56.415,stroop experiment,2024.1.4,None,2024-05-10 17h49.09.263139 -0400,
dad,pink,1,0,1,0,1,m,,,,,,,,,0,2,2,1,,,,,60.72747655399871,,,,,,,,,,,,,,,,,,,,,,,,,,,,,,,,,,,,,,,,,,,,,60.714619293001306,61.22713661700254,61.22713661700254,61.964661394005816,m,0.7189052809990244,None,,,,,,,,,,,,,,,,,,,,,,,,193580,001,2024-05-10_17h47.56.415,stroop experiment,2024.1.4,None,2024-05-10 17h49.09.263139 -0400,
man,blue,1,1,0,0,1,m,,,,,,,,,0,3,3,4,,,,,61.97939291100192,,,,,,,,,,,,,,,,,,,,,,,,,,,,,,,,,,,,,,,,,,,,,61.96554281000135,62.4778521890039,62.4778521890039,63.39690907399927,m,0.9023314869991736,None,,,,,,,,,,,,,,,,,,,,,,,,193580,001,2024-05-10_17h47.56.415,stroop experiment,2024.1.4,None,2024-05-10 17h49.09.263139 -0400,
female,blue,1,0,1,0,1,f,,,,,,,,,0,4,4,2,,,,,63.410955129002105,,,,,,,,,,,,,,,,,,,,,,,,,,,,,,,,,,,,,,,,,,,,,63.397613519002334,63.911362304999784,63.911362304999784,64.34849641600158,f,0.4334369720018003,None,,,,,,,,,,,,,,,,,,,,,,,,193580,001,2024-05-10_17h47.56.415,stroop experiment,2024.1.4,None,2024-05-10 17h49.09.263139 -0400,
,,,,,,,,,,,,,,,,,,,,,,,,,,,,,,,,,,,,,,,,,,,,,,,,,,,,,,,,,,,,,,,,,,,,,,,,,,,,64.34905291800533,64.36048566400132,64.86112133000279,66.10778026200569,space,1.739847036995343,None,,,,,,,,,,,,,,,,,193580,001,2024-05-10_17h47.56.415,stroop experiment,2024.1.4,None,2024-05-10 17h49.09.263139 -0400,
mother,blue,0,0,1,0,1,f,,,,,,,,,,,,,0,0,0,5,66.14706804600428,,,,,,,,,,,,,,,,,,,,,,,,,,,,,,,,,,,,,,,,,,,,,,,,,,,,,,,,,,,66.1320846630042,66.61058878699987,66.61058878699987,67.42168823500106,f,1,0.7524507639973308,None,,,,,,,,,193580,001,2024-05-10_17h47.56.415,stroop experiment,2024.1.4,None,2024-05-10 17h49.09.263139 -0400,
man,pink,0,0,1,0,1,m,,,,,,,,,,,,,0,1,1,11,67.44740013599949,,,,,,,,,,,,,,,,,,,,,,,,,,,,,,,,,,,,,,,,,,,,,,,,,,,,,,,,,,,67.42311149300076,67.92718486599915,67.92718486599915,68.54670726300537,m,1,0.603931179997744,None,,,,,,,,,193580,001,2024-05-10_17h47.56.415,stroop experiment,2024.1.4,None,2024-05-10 17h49.09.263139 -0400,
dad,pink,0,0,1,0,1,m,,,,,,,,,,,,,0,2,2,2,68.56045838100545,,,,,,,,,,,,,,,,,,,,,,,,,,,,,,,,,,,,,,,,,,,,,,,,,,,,,,,,,,,68.5473119560047,69.06090509099886,69.06090509099886,69.51343575500505,m,1,0.4481840459993691,None,,,,,,,,,193580,001,2024-05-10_17h47.56.415,stroop experiment,2024.1.4,None,2024-05-10 17h49.09.263139 -0400,
guy,blue,0,1,0,0,1,m,,,,,,,,,,,,,0,3,3,3,69.52789676900284,,,,,,,,,,,,,,,,,,,,,,,,,,,,,,,,,,,,,,,,,,,,,,,,,,,,,,,,,,,69.51432257299894,70.0270677830049,70.0270677830049,70.54494606400112,m,1,0.5089432940003462,None,,,,,,,,,193580,001,2024-05-10_17h47.56.415,stroop experiment,2024.1.4,None,2024-05-10 17h49.09.263139 -0400,
man,blue,0,1,0,0,1,m,,,,,,,,,,,,,0,4,4,9,70.56074087500019,,,,,,,,,,,,,,,,,,,,,,,,,,,,,,,,,,,,,,,,,,,,,,,,,,,,,,,,,,,70.54548119800165,71.04411146200437,71.04411146200437,71.47904964099871,m,1,0.41890601399791194,None,,,,,,,,,193580,001,2024-05-10_17h47.56.415,stroop experiment,2024.1.4,None,2024-05-10 17h49.09.263139 -0400,
girls,pink,0,1,0,0,1,f,,,,,,,,,,,,,0,5,5,12,71.49335437000263,,,,,,,,,,,,,,,,,,,,,,,,,,,,,,,,,,,,,,,,,,,,,,,,,,,,,,,,,,,71.4795709099999,71.99367819300096,71.99367819300096,72.66284627000277,f,1,0.6522603739940678,None,,,,,,,,,193580,001,2024-05-10_17h47.56.415,stroop experiment,2024.1.4,None,2024-05-10 17h49.09.263139 -0400,
uncle,blue,0,1,0,0,1,m,,,,,,,,,,,,,0,6,6,1,72.67691764200572,,,,,,,,,,,,,,,,,,,,,,,,,,,,,,,,,,,,,,,,,,,,,,,,,,,,,,,,,,,72.66343740800221,73.17808687800425,73.17808687800425,73.68079587900138,m,1,0.48488534199714195,None,,,,,,,,,193580,001,2024-05-10_17h47.56.415,stroop experiment,2024.1.4,None,2024-05-10 17h49.09.263139 -0400,
handsome,blue,0,1,0,0,1,m,,,,,,,,,,,,,0,7,7,16,73.69483792900428,,,,,,,,,,,,,,,,,,,,,,,,,,,,,,,,,,,,,,,,,,,,,,,,,,,,,,,,,,,73.68159828599892,74.19479257100465,74.19479257100465,74.62999525200576,m,1,0.42968667200329946,None,,,,,,,,,193580,001,2024-05-10_17h47.56.415,stroop experiment,2024.1.4,None,2024-05-10 17h49.09.263139 -0400,
madam,pink,0,1,0,0,1,f,,,,,,,,,,,,,0,8,8,17,74.64342233900243,,,,,,,,,,,,,,,,,,,,,,,,,,,,,,,,,,,,,,,,,,,,,,,,,,,,,,,,,,,74.63082061900059,75.1445220720052,75.1445220720052,75.84597474300244,f,1,0.6979979129973799,None,,,,,,,,,193580,001,2024-05-10_17h47.56.415,stroop experiment,2024.1.4,None,2024-05-10 17h49.09.263139 -0400,
damsel,pink,0,1,0,0,1,f,,,,,,,,,,,,,0,9,9,4,75.86042180100048,,,,,,,,,,,,,,,,,,,,,,,,,,,,,,,,,,,,,,,,,,,,,,,,,,,,,,,,,,,75.84668031299952,76.36046466500557,76.36046466500557,77.06211885700031,f,1,0.691588725996553,None,,,,,,,,,193580,001,2024-05-10_17h47.56.415,stroop experiment,2024.1.4,None,2024-05-10 17h49.09.263139 -0400,
boys,pink,0,0,1,0,1,m,,,,,,,,,,,,,0,10,10,15,77.07644826100295,,,,,,,,,,,,,,,,,,,,,,,,,,,,,,,,,,,,,,,,,,,,,,,,,,,,,,,,,,,77.0626634729997,77.5776351290042,77.5776351290042,78.18082619600318,m,1,0.5871537600032752,None,,,,,,,,,193580,001,2024-05-10_17h47.56.415,stroop experiment,2024.1.4,None,2024-05-10 17h49.09.263139 -0400,
sister,pink,0,1,0,0,1,f,,,,,,,,,,,,,0,11,11,8,78.19430337000085,,,,,,,,,,,,,,,,,,,,,,,,,,,,,,,,,,,,,,,,,,,,,,,,,,,,,,,,,,,78.18142752400308,78.69380543500301,78.69380543500301,79.27921316200081,f,1,0.5800563930024509,None,,,,,,,,,193580,001,2024-05-10_17h47.56.415,stroop experiment,2024.1.4,None,2024-05-10 17h49.09.263139 -0400,
female,blue,0,0,1,0,1,f,,,,,,,,,,,,,0,12,12,6,79.29349601300055,,,,,,,,,,,,,,,,,,,,,,,,,,,,,,,,,,,,,,,,,,,,,,,,,,,,,,,,,,,79.27982795199932,79.77768939600355,79.77768939600355,80.27888987900224,f,1,0.4964756940025836,None,,,,,,,,,193580,001,2024-05-10_17h47.56.415,stroop experiment,2024.1.4,None,2024-05-10 17h49.09.263139 -0400,
wife,blue,0,0,1,0,1,f,,,,,,,,,,,,,0,13,13,10,80.29303226699994,,,,,,,,,,,,,,,,,,,,,,,,,,,,,,,,,,,,,,,,,,,,,,,,,,,,,,,,,,,80.27942468300171,80.79411830499885,80.79411830499885,81.32789000400226,f,1,0.5196866789992782,None,,,,,,,,,193580,001,2024-05-10_17h47.56.415,stroop experiment,2024.1.4,None,2024-05-10 17h49.09.263139 -0400,
gentleman,pink,0,0,1,0,1,m,,,,,,,,,,,,,0,14,14,18,81.34300302100019,,,,,,,,,,,,,,,,,,,,,,,,,,,,,,,,,,,,,,,,,,,,,,,,,,,,,,,,,,,81.32842737800092,81.84316561200103,81.84316561200103,82.44516622499941,m,1,0.5890321940023568,None,,,,,,,,,193580,001,2024-05-10_17h47.56.415,stroop experiment,2024.1.4,None,2024-05-10 17h49.09.263139 -0400,
daughter,blue,0,0,1,0,1,f,,,,,,,,,,,,,0,15,15,14,82.45966416400188,,,,,,,,,,,,,,,,,,,,,,,,,,,,,,,,,,,,,,,,,,,,,,,,,,,,,,,,,,,82.44571955500578,82.959649987999,82.959649987999,83.84516723500565,f,1,0.8730323130002944,None,,,,,,,,,193580,001,2024-05-10_17h47.56.415,stroop experiment,2024.1.4,None,2024-05-10 17h49.09.263139 -0400,
nephew,pink,0,0,1,0,1,m,,,,,,,,,,,,,0,16,16,7,83.85965458999999,,,,,,,,,,,,,,,,,,,,,,,,,,,,,,,,,,,,,,,,,,,,,,,,,,,,,,,,,,,83.84588666700438,84.3437277310004,84.3437277310004,85.16356735899899,m,1,0.8158088740019593,None,,,,,,,,,193580,001,2024-05-10_17h47.56.415,stroop experiment,2024.1.4,None,2024-05-10 17h49.09.263139 -0400,
aunt,pink,0,1,0,0,1,f,,,,,,,,,,,,,0,17,17,0,85.17663825400086,,,,,,,,,,,,,,,,,,,,,,,,,,,,,,,,,,,,,,,,,,,,,,,,,,,,,,,,,,,85.16442902500421,85.67779782599973,85.67779782599973,86.19759463000082,f,1,0.5019354390024091,None,,,,,,,,,193580,001,2024-05-10_17h47.56.415,stroop experiment,2024.1.4,None,2024-05-10 17h49.09.263139 -0400,
lady,blue,0,0,1,0,1,f,,,,,,,,,,,,,0,18,18,19,86.21206496400555,,,,,,,,,,,,,,,,,,,,,,,,,,,,,,,,,,,,,,,,,,,,,,,,,,,,,,,,,,,86.19860913600132,86.71010208000371,86.71010208000371,87.16325630600477,f,1,0.44069179100188194,None,,,,,,,,,193580,001,2024-05-10_17h47.56.415,stroop experiment,2024.1.4,None,2024-05-10 17h49.09.263139 -0400,
father,blue,0,1,0,0,1,m,,,,,,,,,,,,,0,19,19,13,87.17718040900218,,,,,,,,,,,,,,,,,,,,,,,,,,,,,,,,,,,,,,,,,,,,,,,,,,,,,,,,,,,87.16409023899905,87.67755688100442,87.67755688100442,88.3303073920033,m,1,0.6487842610004009,None,,,,,,,,,193580,001,2024-05-10_17h47.56.415,stroop experiment,2024.1.4,None,2024-05-10 17h49.09.263139 -0400,
,,,,,,,,,,,,,,,,,,,,,,,,,,,,,,,,,,,,,,,,,,,,,,,,,,,,,,,,,,,,,,,,,,,,,,,,,,,,,,,,,,,,,,,,,,,88.33093449700391,88.34357015700516,88.34357015700516,89.34442737900099,102.26226357200358,space,13.905935733004299,None,193580,001,2024-05-10_17h47.56.415,stroop experiment,2024.1.4,None,2024-05-10 17h49.09.263139 -0400,
