word,color,practice,congruent,incongruent,CN,GC,corrAns,CNpractice.thisRepN,CNpractice.thisTrialN,CNpractice.thisN,CNpractice.thisIndex,CNtrials.thisRepN,CNtrials.thisTrialN,CNtrials.thisN,CNtrials.thisIndex,GCpractice.thisRepN,GCpractice.thisTrialN,GCpractice.thisN,GCpractice.thisIndex,GCtrials.thisRepN,GCtrials.thisTrialN,GCtrials.thisN,GCtrials.thisIndex,thisRow.t,notes,CN_instructions1.started,key_resp_2.started,text.started,CN_instructions1.stopped,key_resp_2.keys,key_resp_2.rt,key_resp_2.duration,CNpracticetrials.started,practicetask1.started,practicetaskkeys.started,CNpracticetrials.stopped,practicetaskkeys.keys,practicetaskkeys.rt,practicetaskkeys.duration,CN_instructions2.started,key_resp.started,instrText.started,CN_instructions2.stopped,key_resp.keys,key_resp.rt,key_resp.duration,colornaming.started,target.started,response.started,colornaming.stopped,response.keys,response.corr,response.rt,response.duration,CNend.started,key_resp_3.started,text_2.started,CNend.stopped,key_resp_3.keys,key_resp_3.rt,key_resp_3.duration,GC_instructions1.started,key_resp_4.started,text_3.started,GC_instructions1.stopped,key_resp_4.keys,key_resp_4.rt,key_resp_4.duration,GCpracticetrials.started,text_6.started,key_resp_8.started,GCpracticetrials.stopped,key_resp_8.keys,key_resp_8.rt,key_resp_8.duration,GC_instructions2.started,key_resp_6.started,text_5.started,GC_instructions2.stopped,key_resp_6.keys,key_resp_6.rt,key_resp_6.duration,gendercategorization.started,trial_task_2_text.started,key_resp_5.started,gendercategorization.stopped,key_resp_5.keys,key_resp_5.corr,key_resp_5.rt,key_resp_5.duration,final_message.started,text_4.started,key_resp_7.started,text_4.stopped,final_message.stopped,key_resp_7.keys,key_resp_7.rt,key_resp_7.duration,participant,session,date,expName,psychopyVersion,frameRate,expStart,
,,,,,,,,,,,,,,,,,,,,,,,,,,0.008917067003494594,0.018508669003495015,0.5145022560027428,105.75559354600409,space,105.7028505729977,None,,,,,,,,,,,,,,,,,,,,,,,,,,,,,,,,,,,,,,,,,,,,,,,,,,,,,,,,,,,,,,,,,,,667974,001,2024-05-11_11h23.53.934,stroop experiment,2024.1.4,None,2024-05-11 11h24.01.044244 -0400,
boy,blue,1,1,0,1,0,b,0,0,0,1,,,,,,,,,,,,,105.7925819009979,,,,,,,,,105.77521336099744,106.26791274000425,106.26791274000425,107.52115814400167,b,1.2365234430035343,None,,,,,,,,,,,,,,,,,,,,,,,,,,,,,,,,,,,,,,,,,,,,,,,,,,,,,,,,,,,,667974,001,2024-05-11_11h23.53.934,stroop experiment,2024.1.4,None,2024-05-11 11h24.01.044244 -0400,
niece,blue,1,0,1,1,0,b,0,1,1,3,,,,,,,,,,,,,107.53696743099863,,,,,,,,,107.5222447030028,108.03466436800227,108.03466436800227,109.8053162560027,b,1.7514808229971095,None,,,,,,,,,,,,,,,,,,,,,,,,,,,,,,,,,,,,,,,,,,,,,,,,,,,,,,,,,,,,667974,001,2024-05-11_11h23.53.934,stroop experiment,2024.1.4,None,2024-05-11 11h24.01.044244 -0400,
female,pink,1,1,0,1,0,p,0,2,2,0,,,,,,,,,,,,,109.81756740700075,,,,,,,,,109.80585509700177,110.3181877590032,110.3181877590032,111.62073933200008,p,1.2995728280002368,None,,,,,,,,,,,,,,,,,,,,,,,,,,,,,,,,,,,,,,,,,,,,,,,,,,,,,,,,,,,,667974,001,2024-05-11_11h23.53.934,stroop experiment,2024.1.4,None,2024-05-11 11h24.01.044244 -0400,
husband,pink,1,0,1,1,0,b,0,3,3,2,,,,,,,,,,,,,111.63466999200318,,,,,,,,,111.6214759430004,112.13495847499871,112.13495847499871,113.13700141200388,p,0.9990899289987283,None,,,,,,,,,,,,,,,,,,,,,,,,,,,,,,,,,,,,,,,,,,,,,,,,,,,,,,,,,,,,667974,001,2024-05-11_11h23.53.934,stroop experiment,2024.1.4,None,2024-05-11 11h24.01.044244 -0400,
mother,pink,1,1,0,1,0,p,0,4,4,4,,,,,,,,,,,,,113.15211115800048,,,,,,,,,113.1378010949993,113.65191411299747,113.65191411299747,114.439171652004,p,0.7815940130021772,None,,,,,,,,,,,,,,,,,,,,,,,,,,,,,,,,,,,,,,,,,,,,,,,,,,,,,,,,,,,,667974,001,2024-05-11_11h23.53.934,stroop experiment,2024.1.4,None,2024-05-11 11h24.01.044244 -0400,
,,,,,,,,,,,,,,,,,,,,,,,,,,,,,,,,,,,,,,,,114.43970603200432,114.45110640000348,114.95146374800242,120.58784391399968,space,6.122990308998851,None,,,,,,,,,,,,,,,,,,,,,,,,,,,,,,,,,,,,,,,,,,,,,,,,,,,,,667974,001,2024-05-11_11h23.53.934,stroop experiment,2024.1.4,None,2024-05-11 11h24.01.044244 -0400,
damsel,blue,0,0,1,1,0,b,,,,,0,0,0,11,,,,,,,,,120.62107813599869,,,,,,,,,,,,,,,,,,,,,,,120.609004568003,121.10148903200025,121.10148903200025,121.81983117399795,b,1,0.709077828003501,None,,,,,,,,,,,,,,,,,,,,,,,,,,,,,,,,,,,,,,,,,,,,,667974,001,2024-05-11_11h23.53.934,stroop experiment,2024.1.4,None,2024-05-11 11h24.01.044244 -0400,
wife,blue,0,0,1,1,0,b,,,,,0,1,1,7,,,,,,,,,121.83432414800336,,,,,,,,,,,,,,,,,,,,,,,121.82098779600346,122.3341780769988,122.3341780769988,123.02110870400065,b,1,0.6697067210043315,None,,,,,,,,,,,,,,,,,,,,,,,,,,,,,,,,,,,,,,,,,,,,,667974,001,2024-05-11_11h23.53.934,stroop experiment,2024.1.4,None,2024-05-11 11h24.01.044244 -0400,
aunt,blue,0,0,1,1,0,b,,,,,0,2,2,2,,,,,,,,,123.03736478299834,,,,,,,,,,,,,,,,,,,,,,,123.02211250500113,123.53439472299942,123.53439472299942,124.23633648599935,b,1,0.6899584610000602,None,,,,,,,,,,,,,,,,,,,,,,,,,,,,,,,,,,,,,,,,,,,,,667974,001,2024-05-11_11h23.53.934,stroop experiment,2024.1.4,None,2024-05-11 11h24.01.044244 -0400,
father,blue,0,1,0,1,0,b,,,,,0,3,3,9,,,,,,,,,124.25184356200043,,,,,,,,,,,,,,,,,,,,,,,124.23714134799957,124.75084615700325,124.75084615700325,125.31987784399826,b,1,0.5641017140005715,None,,,,,,,,,,,,,,,,,,,,,,,,,,,,,,,,,,,,,,,,,,,,,667974,001,2024-05-11_11h23.53.934,stroop experiment,2024.1.4,None,2024-05-11 11h24.01.044244 -0400,
lady,pink,0,1,0,1,0,p,,,,,0,4,4,16,,,,,,,,,125.33483772700129,,,,,,,,,,,,,,,,,,,,,,,125.32040967899957,125.83463259500422,125.83463259500422,126.53715224999905,p,1,0.6996116469963454,None,,,,,,,,,,,,,,,,,,,,,,,,,,,,,,,,,,,,,,,,,,,,,667974,001,2024-05-11_11h23.53.934,stroop experiment,2024.1.4,None,2024-05-11 11h24.01.044244 -0400,
uncle,blue,0,1,0,1,0,b,,,,,0,5,5,1,,,,,,,,,126.55178463800257,,,,,,,,,,,,,,,,,,,,,,,126.53783669399854,127.05181406900374,127.05181406900374,127.72888333300216,b,1,0.6499907930046902,None,,,,,,,,,,,,,,,,,,,,,,,,,,,,,,,,,,,,,,,,,,,,,667974,001,2024-05-11_11h23.53.934,stroop experiment,2024.1.4,None,2024-05-11 11h24.01.044244 -0400,
guy,blue,0,1,0,1,0,b,,,,,0,6,6,17,,,,,,,,,127.74396269600402,,,,,,,,,,,,,,,,,,,,,,,127.72981796000386,128.2851952830024,128.2851952830024,128.8531867519996,b,1,0.5599386489993776,None,,,,,,,,,,,,,,,,,,,,,,,,,,,,,,,,,,,,,,,,,,,,,667974,001,2024-05-11_11h23.53.934,stroop experiment,2024.1.4,None,2024-05-11 11h24.01.044244 -0400,
maid,blue,0,0,1,1,0,b,,,,,0,7,7,18,,,,,,,,,128.86873874499724,,,,,,,,,,,,,,,,,,,,,,,128.85368255199865,129.36757873600436,129.36757873600436,129.97096143700037,b,1,0.5974672599986661,None,,,,,,,,,,,,,,,,,,,,,,,,,,,,,,,,,,,,,,,,,,,,,667974,001,2024-05-11_11h23.53.934,stroop experiment,2024.1.4,None,2024-05-11 11h24.01.044244 -0400,
daughter,pink,0,1,0,1,0,p,,,,,0,8,8,10,,,,,,,,,129.98755526899913,,,,,,,,,,,,,,,,,,,,,,,129.97177503700368,130.48479420199874,130.48479420199874,131.13881589400262,p,1,0.6354101709948736,None,,,,,,,,,,,,,,,,,,,,,,,,,,,,,,,,,,,,,,,,,,,,,667974,001,2024-05-11_11h23.53.934,stroop experiment,2024.1.4,None,2024-05-11 11h24.01.044244 -0400,
sister,pink,0,1,0,1,0,p,,,,,0,9,9,13,,,,,,,,,131.15201044899732,,,,,,,,,,,,,,,,,,,,,,,131.13981815399893,131.65141044899792,131.65141044899792,132.32105873600085,p,1,0.6519931410002755,None,,,,,,,,,,,,,,,,,,,,,,,,,,,,,,,,,,,,,,,,,,,,,667974,001,2024-05-11_11h23.53.934,stroop experiment,2024.1.4,None,2024-05-11 11h24.01.044244 -0400,
grandpa,pink,0,0,1,1,0,b,,,,,0,10,10,5,,,,,,,,,132.33727162700234,,,,,,,,,,,,,,,,,,,,,,,132.32208522099972,132.83398460600438,132.83398460600438,133.52362361200358,p,0,0.6847531780003919,None,,,,,,,,,,,,,,,,,,,,,,,,,,,,,,,,,,,,,,,,,,,,,667974,001,2024-05-11_11h23.53.934,stroop experiment,2024.1.4,None,2024-05-11 11h24.01.044244 -0400,
female,pink,0,1,0,1,0,p,,,,,0,11,11,0,,,,,,,,,133.53975913699833,,,,,,,,,,,,,,,,,,,,,,,133.52447866700095,134.03517300000385,134.03517300000385,134.6549794780003,p,1,0.6150312370009487,None,,,,,,,,,,,,,,,,,,,,,,,,,,,,,,,,,,,,,,,,,,,,,667974,001,2024-05-11_11h23.53.934,stroop experiment,2024.1.4,None,2024-05-11 11h24.01.044244 -0400,
nephew,pink,0,0,1,1,0,p,,,,,0,12,12,19,,,,,,,,,134.66954216600425,,,,,,,,,,,,,,,,,,,,,,,134.65577402000054,135.167209842999,135.167209842999,135.77202193300036,p,1,0.601368909003213,None,,,,,,,,,,,,,,,,,,,,,,,,,,,,,,,,,,,,,,,,,,,,,667974,001,2024-05-11_11h23.53.934,stroop experiment,2024.1.4,None,2024-05-11 11h24.01.044244 -0400,
handsome,blue,0,1,0,1,0,b,,,,,0,13,13,12,,,,,,,,,135.78779020399816,,,,,,,,,,,,,,,,,,,,,,,135.7728746770008,136.2857010200023,136.2857010200023,137.02868672199838,b,1,0.7399027369974647,None,,,,,,,,,,,,,,,,,,,,,,,,,,,,,,,,,,,,,,,,,,,,,667974,001,2024-05-11_11h23.53.934,stroop experiment,2024.1.4,None,2024-05-11 11h24.01.044244 -0400,
gentleman,pink,0,0,1,1,0,p,,,,,0,14,14,4,,,,,,,,,137.04322947299806,,,,,,,,,,,,,,,,,,,,,,,137.02942514199822,137.53520125299838,137.53520125299838,138.23547652100387,p,1,0.6886391640000511,None,,,,,,,,,,,,,,,,,,,,,,,,,,,,,,,,,,,,,,,,,,,,,667974,001,2024-05-11_11h23.53.934,stroop experiment,2024.1.4,None,2024-05-11 11h24.01.044244 -0400,
male,pink,0,0,1,1,0,p,,,,,0,15,15,8,,,,,,,,,138.2504881959976,,,,,,,,,,,,,,,,,,,,,,,138.23589028599963,138.75091525300377,138.75091525300377,139.43664759500098,p,1,0.678028843998618,None,,,,,,,,,,,,,,,,,,,,,,,,,,,,,,,,,,,,,,,,,,,,,667974,001,2024-05-11_11h23.53.934,stroop experiment,2024.1.4,None,2024-05-11 11h24.01.044244 -0400,
son,blue,0,1,0,1,0,b,,,,,0,16,16,6,,,,,,,,,139.4513754080035,,,,,,,,,,,,,,,,,,,,,,,139.43750891299715,139.95083048300148,139.95083048300148,140.62036418700154,b,1,0.6639557160015102,None,,,,,,,,,,,,,,,,,,,,,,,,,,,,,,,,,,,,,,,,,,,,,667974,001,2024-05-11_11h23.53.934,stroop experiment,2024.1.4,None,2024-05-11 11h24.01.044244 -0400,
grandma,blue,0,0,1,1,0,b,,,,,0,17,17,15,,,,,,,,,140.63515599499806,,,,,,,,,,,,,,,,,,,,,,,140.62122696499864,141.13514002600277,141.13514002600277,141.78627996399882,b,1,0.6388398859999143,None,,,,,,,,,,,,,,,,,,,,,,,,,,,,,,,,,,,,,,,,,,,,,667974,001,2024-05-11_11h23.53.934,stroop experiment,2024.1.4,None,2024-05-11 11h24.01.044244 -0400,
girl,pink,0,1,0,1,0,p,,,,,0,18,18,3,,,,,,,,,141.8002636290039,,,,,,,,,,,,,,,,,,,,,,,141.78677246299776,142.30245818699768,142.30245818699768,143.0035796470038,p,1,0.6929109150005388,None,,,,,,,,,,,,,,,,,,,,,,,,,,,,,,,,,,,,,,,,,,,,,667974,001,2024-05-11_11h23.53.934,stroop experiment,2024.1.4,None,2024-05-11 11h24.01.044244 -0400,
dad,pink,0,0,1,1,0,p,,,,,0,19,19,14,,,,,,,,,143.01825521200226,,,,,,,,,,,,,,,,,,,,,,,143.00448621300166,143.51864082900283,143.51864082900283,144.16956820300402,p,1,0.6385475600036443,None,,,,,,,,,,,,,,,,,,,,,,,,,,,,,,,,,,,,,,,,,,,,,667974,001,2024-05-11_11h23.53.934,stroop experiment,2024.1.4,None,2024-05-11 11h24.01.044244 -0400,
,,,,,,,,,,,,,,,,,,,,,,,,,,,,,,,,,,,,,,,,,,,,,,,,,,,,,,,144.1701333000019,144.18465129099786,144.68486047800252,158.15422514300008,space,13.963035328000842,None,,,,,,,,,,,,,,,,,,,,,,,,,,,,,,,,,,,,,,667974,001,2024-05-11_11h23.53.934,stroop experiment,2024.1.4,None,2024-05-11 11h24.01.044244 -0400,
,,,,,,,,,,,,,,,,,,,,,,,,,,,,,,,,,,,,,,,,,,,,,,,,,,,,,,,,,,,,,,158.1542664880035,158.16749664000235,158.66716329799965,203.8692108230025,space,45.69098983400181,None,,,,,,,,,,,,,,,,,,,,,,,,,,,,,,,667974,001,2024-05-11_11h23.53.934,stroop experiment,2024.1.4,None,2024-05-11 11h24.01.044244 -0400,
female,blue,1,0,1,0,1,f,,,,,,,,,0,0,0,2,,,,,203.89875184799894,,,,,,,,,,,,,,,,,,,,,,,,,,,,,,,,,,,,,,,,,,,,,203.88666459399974,204.38412950000202,204.38412950000202,206.18492796300416,f,1.7860969819957973,None,,,,,,,,,,,,,,,,,,,,,,,,667974,001,2024-05-11_11h23.53.934,stroop experiment,2024.1.4,None,2024-05-11 11h24.01.044244 -0400,
aunt,blue,1,0,1,0,1,f,,,,,,,,,0,1,1,0,,,,,206.20058466499904,,,,,,,,,,,,,,,,,,,,,,,,,,,,,,,,,,,,,,,,,,,,,206.18567102200177,206.69996864900168,206.69996864900168,207.68642151400127,f,0.9825394180006697,None,,,,,,,,,,,,,,,,,,,,,,,,667974,001,2024-05-11_11h23.53.934,stroop experiment,2024.1.4,None,2024-05-11 11h24.01.044244 -0400,
dad,pink,1,0,1,0,1,m,,,,,,,,,0,2,2,1,,,,,207.7000774390035,,,,,,,,,,,,,,,,,,,,,,,,,,,,,,,,,,,,,,,,,,,,,207.68692738700338,208.19996395100316,208.19996395100316,209.48872961899906,m,1.2715538530028425,None,,,,,,,,,,,,,,,,,,,,,,,,667974,001,2024-05-11_11h23.53.934,stroop experiment,2024.1.4,None,2024-05-11 11h24.01.044244 -0400,
mother,pink,1,1,0,0,1,f,,,,,,,,,0,3,3,3,,,,,209.50228320399765,,,,,,,,,,,,,,,,,,,,,,,,,,,,,,,,,,,,,,,,,,,,,209.48945439799718,210.00023056400096,210.00023056400096,211.33913384500192,f,1.319549524996546,None,,,,,,,,,,,,,,,,,,,,,,,,667974,001,2024-05-11_11h23.53.934,stroop experiment,2024.1.4,None,2024-05-11 11h24.01.044244 -0400,
man,blue,1,1,0,0,1,m,,,,,,,,,0,4,4,4,,,,,211.35456749700097,,,,,,,,,,,,,,,,,,,,,,,,,,,,,,,,,,,,,,,,,,,,,211.3400383449989,211.85081952199835,211.85081952199835,212.65419508099876,m,0.7990998159948504,None,,,,,,,,,,,,,,,,,,,,,,,,667974,001,2024-05-11_11h23.53.934,stroop experiment,2024.1.4,None,2024-05-11 11h24.01.044244 -0400,
,,,,,,,,,,,,,,,,,,,,,,,,,,,,,,,,,,,,,,,,,,,,,,,,,,,,,,,,,,,,,,,,,,,,,,,,,,,,212.65474948000337,212.66643278500123,213.16665985999862,220.81952668300073,space,8.135980167004163,None,,,,,,,,,,,,,,,,,667974,001,2024-05-11_11h23.53.934,stroop experiment,2024.1.4,None,2024-05-11 11h24.01.044244 -0400,
sister,pink,0,1,0,0,1,f,,,,,,,,,,,,,0,0,0,8,220.8539522639985,,,,,,,,,,,,,,,,,,,,,,,,,,,,,,,,,,,,,,,,,,,,,,,,,,,,,,,,,,,220.8436835809989,221.33336693300225,221.33336693300225,222.73556811099843,f,1,1.3939614510018146,None,,,,,,,,,667974,001,2024-05-11_11h23.53.934,stroop experiment,2024.1.4,None,2024-05-11 11h24.01.044244 -0400,
boys,pink,0,0,1,0,1,m,,,,,,,,,,,,,0,1,1,15,222.7493349350043,,,,,,,,,,,,,,,,,,,,,,,,,,,,,,,,,,,,,,,,,,,,,,,,,,,,,,,,,,,222.73616752600356,223.25001127100404,223.25001127100404,224.1210054960029,m,1,0.8525636569975177,None,,,,,,,,,667974,001,2024-05-11_11h23.53.934,stroop experiment,2024.1.4,None,2024-05-11 11h24.01.044244 -0400,
man,pink,0,0,1,0,1,m,,,,,,,,,,,,,0,2,2,11,224.13602645300125,,,,,,,,,,,,,,,,,,,,,,,,,,,,,,,,,,,,,,,,,,,,,,,,,,,,,,,,,,,224.1221202300003,224.6328971250041,224.6328971250041,225.28604101000383,m,1,0.634691617997305,None,,,,,,,,,667974,001,2024-05-11_11h23.53.934,stroop experiment,2024.1.4,None,2024-05-11 11h24.01.044244 -0400,
lady,blue,0,0,1,0,1,f,,,,,,,,,,,,,0,3,3,19,225.30006110900285,,,,,,,,,,,,,,,,,,,,,,,,,,,,,,,,,,,,,,,,,,,,,,,,,,,,,,,,,,,225.28696094000043,225.80124555400107,225.80124555400107,226.63627290399745,f,1,0.832125751003332,None,,,,,,,,,667974,001,2024-05-11_11h23.53.934,stroop experiment,2024.1.4,None,2024-05-11 11h24.01.044244 -0400,
wife,blue,0,0,1,0,1,f,,,,,,,,,,,,,0,4,4,10,226.64911034100078,,,,,,,,,,,,,,,,,,,,,,,,,,,,,,,,,,,,,,,,,,,,,,,,,,,,,,,,,,,226.63676467299956,227.14957039400178,227.14957039400178,227.93645426799776,f,1,0.7841247989999829,None,,,,,,,,,667974,001,2024-05-11_11h23.53.934,stroop experiment,2024.1.4,None,2024-05-11 11h24.01.044244 -0400,
father,blue,0,1,0,0,1,m,,,,,,,,,,,,,0,5,5,13,227.95021834199724,,,,,,,,,,,,,,,,,,,,,,,,,,,,,,,,,,,,,,,,,,,,,,,,,,,,,,,,,,,227.93718289700337,228.44981698899937,228.44981698899937,229.26892514499923,m,1,0.8108812079954077,None,,,,,,,,,667974,001,2024-05-11_11h23.53.934,stroop experiment,2024.1.4,None,2024-05-11 11h24.01.044244 -0400,
guy,blue,0,1,0,0,1,m,,,,,,,,,,,,,0,6,6,3,229.28388228000404,,,,,,,,,,,,,,,,,,,,,,,,,,,,,,,,,,,,,,,,,,,,,,,,,,,,,,,,,,,229.2697266440009,229.78364800599957,229.78364800599957,230.53658486699715,m,1,0.735003185000096,None,,,,,,,,,667974,001,2024-05-11_11h23.53.934,stroop experiment,2024.1.4,None,2024-05-11 11h24.01.044244 -0400,
girls,pink,0,1,0,0,1,f,,,,,,,,,,,,,0,7,7,12,230.55181728600292,,,,,,,,,,,,,,,,,,,,,,,,,,,,,,,,,,,,,,,,,,,,,,,,,,,,,,,,,,,230.53759473600076,231.0498508640012,231.0498508640012,231.83408643300208,f,1,0.767860849002318,None,,,,,,,,,667974,001,2024-05-11_11h23.53.934,stroop experiment,2024.1.4,None,2024-05-11 11h24.01.044244 -0400,
handsome,blue,0,1,0,0,1,m,,,,,,,,,,,,,0,8,8,16,231.84947187000216,,,,,,,,,,,,,,,,,,,,,,,,,,,,,,,,,,,,,,,,,,,,,,,,,,,,,,,,,,,231.8345823089985,232.3494657159972,232.3494657159972,233.15205423899897,m,1,0.7996802220004611,None,,,,,,,,,667974,001,2024-05-11_11h23.53.934,stroop experiment,2024.1.4,None,2024-05-11 11h24.01.044244 -0400,
daughter,blue,0,0,1,0,1,f,,,,,,,,,,,,,0,9,9,14,233.16612720800185,,,,,,,,,,,,,,,,,,,,,,,,,,,,,,,,,,,,,,,,,,,,,,,,,,,,,,,,,,,233.15264288899925,233.6663339049992,233.6663339049992,234.6508969380011,f,1,0.974061476001225,None,,,,,,,,,667974,001,2024-05-11_11h23.53.934,stroop experiment,2024.1.4,None,2024-05-11 11h24.01.044244 -0400,
dad,pink,0,0,1,0,1,m,,,,,,,,,,,,,0,10,10,2,234.66582102399843,,,,,,,,,,,,,,,,,,,,,,,,,,,,,,,,,,,,,,,,,,,,,,,,,,,,,,,,,,,234.65131561899761,235.16664886400395,235.16664886400395,236.0683989770041,m,1,0.8910012479973375,None,,,,,,,,,667974,001,2024-05-11_11h23.53.934,stroop experiment,2024.1.4,None,2024-05-11 11h24.01.044244 -0400,
damsel,pink,0,1,0,0,1,f,,,,,,,,,,,,,0,11,11,4,236.08256628800154,,,,,,,,,,,,,,,,,,,,,,,,,,,,,,,,,,,,,,,,,,,,,,,,,,,,,,,,,,,236.0689154560023,236.56659801200294,236.56659801200294,237.48453412699746,f,1,0.9086363859969424,None,,,,,,,,,667974,001,2024-05-11_11h23.53.934,stroop experiment,2024.1.4,None,2024-05-11 11h24.01.044244 -0400,
man,blue,0,1,0,0,1,m,,,,,,,,,,,,,0,12,12,9,237.49935988200014,,,,,,,,,,,,,,,,,,,,,,,,,,,,,,,,,,,,,,,,,,,,,,,,,,,,,,,,,,,237.48495719100174,237.9843853370039,237.9843853370039,238.6337174750006,m,1,0.6335223489950295,None,,,,,,,,,667974,001,2024-05-11_11h23.53.934,stroop experiment,2024.1.4,None,2024-05-11 11h24.01.044244 -0400,
aunt,pink,0,1,0,0,1,f,,,,,,,,,,,,,0,13,13,0,238.64956242100016,,,,,,,,,,,,,,,,,,,,,,,,,,,,,,,,,,,,,,,,,,,,,,,,,,,,,,,,,,,238.6344208340015,239.1328184860031,239.1328184860031,239.90223043600417,f,1,0.7540968579996843,None,,,,,,,,,667974,001,2024-05-11_11h23.53.934,stroop experiment,2024.1.4,None,2024-05-11 11h24.01.044244 -0400,
uncle,blue,0,1,0,0,1,m,,,,,,,,,,,,,0,14,14,1,239.91865040900302,,,,,,,,,,,,,,,,,,,,,,,,,,,,,,,,,,,,,,,,,,,,,,,,,,,,,,,,,,,239.90323522200197,240.41628926699923,240.41628926699923,241.4030710340012,m,1,0.9812982919975184,None,,,,,,,,,667974,001,2024-05-11_11h23.53.934,stroop experiment,2024.1.4,None,2024-05-11 11h24.01.044244 -0400,
mother,blue,0,0,1,0,1,f,,,,,,,,,,,,,0,15,15,5,241.41718469499756,,,,,,,,,,,,,,,,,,,,,,,,,,,,,,,,,,,,,,,,,,,,,,,,,,,,,,,,,,,241.40388912599883,241.91636474300321,241.91636474300321,242.65196284400008,f,1,0.7264479709992884,None,,,,,,,,,667974,001,2024-05-11_11h23.53.934,stroop experiment,2024.1.4,None,2024-05-11 11h24.01.044244 -0400,
female,blue,0,0,1,0,1,f,,,,,,,,,,,,,0,16,16,6,242.66715203499916,,,,,,,,,,,,,,,,,,,,,,,,,,,,,,,,,,,,,,,,,,,,,,,,,,,,,,,,,,,242.65277278400026,243.16614738600038,243.16614738600038,244.28386741199938,f,1,1.1017633810042753,None,,,,,,,,,667974,001,2024-05-11_11h23.53.934,stroop experiment,2024.1.4,None,2024-05-11 11h24.01.044244 -0400,
gentleman,pink,0,0,1,0,1,m,,,,,,,,,,,,,0,17,17,18,244.29899037600262,,,,,,,,,,,,,,,,,,,,,,,,,,,,,,,,,,,,,,,,,,,,,,,,,,,,,,,,,,,244.28456112200365,244.78399836400058,244.78399836400058,246.31814371300425,m,1,1.5186520439965534,None,,,,,,,,,667974,001,2024-05-11_11h23.53.934,stroop experiment,2024.1.4,None,2024-05-11 11h24.01.044244 -0400,
nephew,pink,0,0,1,0,1,m,,,,,,,,,,,,,0,18,18,7,246.33196636399953,,,,,,,,,,,,,,,,,,,,,,,,,,,,,,,,,,,,,,,,,,,,,,,,,,,,,,,,,,,246.3186577430024,246.8325002069978,246.8325002069978,247.78539862199978,m,1,0.9397613440014538,None,,,,,,,,,667974,001,2024-05-11_11h23.53.934,stroop experiment,2024.1.4,None,2024-05-11 11h24.01.044244 -0400,
madam,pink,0,1,0,0,1,f,,,,,,,,,,,,,0,19,19,17,247.79977688300278,,,,,,,,,,,,,,,,,,,,,,,,,,,,,,,,,,,,,,,,,,,,,,,,,,,,,,,,,,,247.78610930099967,248.30094665499928,248.30094665499928,249.0175681010005,f,1,0.7093381459999364,None,,,,,,,,,667974,001,2024-05-11_11h23.53.934,stroop experiment,2024.1.4,None,2024-05-11 11h24.01.044244 -0400,
,,,,,,,,,,,,,,,,,,,,,,,,,,,,,,,,,,,,,,,,,,,,,,,,,,,,,,,,,,,,,,,,,,,,,,,,,,,,,,,,,,,,,,,,,,,249.0179098380031,249.03252817400062,249.03252817400062,250.0338381190013,263.7542165499981,space,14.718163539997477,None,667974,001,2024-05-11_11h23.53.934,stroop experiment,2024.1.4,None,2024-05-11 11h24.01.044244 -0400,
