word,color,practice,congruent,incongruent,CN,GC,corrAns,CNpractice.thisRepN,CNpractice.thisTrialN,CNpractice.thisN,CNpractice.thisIndex,CNtrials.thisRepN,CNtrials.thisTrialN,CNtrials.thisN,CNtrials.thisIndex,GCpractice.thisRepN,GCpractice.thisTrialN,GCpractice.thisN,GCpractice.thisIndex,GCtrials.thisRepN,GCtrials.thisTrialN,GCtrials.thisN,GCtrials.thisIndex,thisRow.t,notes,CN_instructions1.started,key_resp_2.started,text.started,CN_instructions1.stopped,key_resp_2.keys,key_resp_2.rt,key_resp_2.duration,CNpracticetrials.started,practicetask1.started,practicetaskkeys.started,CNpracticetrials.stopped,practicetaskkeys.keys,practicetaskkeys.rt,practicetaskkeys.duration,CN_instructions2.started,key_resp.started,instrText.started,CN_instructions2.stopped,key_resp.keys,key_resp.rt,key_resp.duration,colornaming.started,target.started,response.started,colornaming.stopped,response.keys,response.corr,response.rt,response.duration,CNend.started,key_resp_3.started,text_2.started,CNend.stopped,key_resp_3.keys,key_resp_3.rt,key_resp_3.duration,GC_instructions1.started,key_resp_4.started,text_3.started,GC_instructions1.stopped,key_resp_4.keys,key_resp_4.rt,key_resp_4.duration,GCpracticetrials.started,text_6.started,key_resp_8.started,GCpracticetrials.stopped,key_resp_8.keys,key_resp_8.rt,key_resp_8.duration,GC_instructions2.started,key_resp_6.started,text_5.started,GC_instructions2.stopped,key_resp_6.keys,key_resp_6.rt,key_resp_6.duration,gendercategorization.started,trial_task_2_text.started,key_resp_5.started,gendercategorization.stopped,key_resp_5.keys,key_resp_5.corr,key_resp_5.rt,key_resp_5.duration,trial_task_2_text.stopped,final_message.started,text_4.started,key_resp_7.started,text_4.stopped,final_message.stopped,key_resp_7.keys,key_resp_7.rt,key_resp_7.duration,participant,session,date,expName,psychopyVersion,frameRate,expStart,
,,,,,,,,,,,,,,,,,,,,,,,,,,0.00849716200173134,0.017874969002150465,0.5265032000024803,16.748054976000276,space,16.710843970002315,None,,,,,,,,,,,,,,,,,,,,,,,,,,,,,,,,,,,,,,,,,,,,,,,,,,,,,,,,,,,,,,,,,,,,778222,001,2024-05-11_11h19.11.180,stroop experiment,2024.1.4,None,2024-05-11 11h19.23.278511 -0400,
female,pink,1,1,0,1,0,p,0,0,0,0,,,,,,,,,,,,,16.776284296000085,,,,,,,,,16.760392550997494,17.248621628001274,17.248621628001274,18.083684799996263,p,0.82202450800105,None,,,,,,,,,,,,,,,,,,,,,,,,,,,,,,,,,,,,,,,,,,,,,,,,,,,,,,,,,,,,,778222,001,2024-05-11_11h19.11.180,stroop experiment,2024.1.4,None,2024-05-11 11h19.23.278511 -0400,
husband,pink,1,0,1,1,0,b,0,1,1,2,,,,,,,,,,,,,18.100396900001215,,,,,,,,,18.085671998996986,18.59866235499794,18.59866235499794,19.518339862996072,p,0.9061760699987644,None,,,,,,,,,,,,,,,,,,,,,,,,,,,,,,,,,,,,,,,,,,,,,,,,,,,,,,,,,,,,,778222,001,2024-05-11_11h19.11.180,stroop experiment,2024.1.4,None,2024-05-11 11h19.23.278511 -0400,
boy,blue,1,1,0,1,0,b,0,2,2,1,,,,,,,,,,,,,19.541267480002716,,,,,,,,,19.518847491999622,20.032206627998676,20.032206627998676,20.75194471499708,b,0.7031660959983128,None,,,,,,,,,,,,,,,,,,,,,,,,,,,,,,,,,,,,,,,,,,,,,,,,,,,,,,,,,,,,,778222,001,2024-05-11_11h19.11.180,stroop experiment,2024.1.4,None,2024-05-11 11h19.23.278511 -0400,
mother,pink,1,1,0,1,0,p,0,3,3,4,,,,,,,,,,,,,20.766089324002678,,,,,,,,,20.75267755099776,21.298780438002723,21.298780438002723,21.96772138000233,p,0.6606714590016054,None,,,,,,,,,,,,,,,,,,,,,,,,,,,,,,,,,,,,,,,,,,,,,,,,,,,,,,,,,,,,,778222,001,2024-05-11_11h19.11.180,stroop experiment,2024.1.4,None,2024-05-11 11h19.23.278511 -0400,
niece,blue,1,0,1,1,0,b,0,4,4,3,,,,,,,,,,,,,21.982419465995918,,,,,,,,,21.968428635002056,22.481859551000525,22.481859551000525,23.321810278997873,b,0.8263568590045907,None,,,,,,,,,,,,,,,,,,,,,,,,,,,,,,,,,,,,,,,,,,,,,,,,,,,,,,,,,,,,,778222,001,2024-05-11_11h19.11.180,stroop experiment,2024.1.4,None,2024-05-11 11h19.23.278511 -0400,
,,,,,,,,,,,,,,,,,,,,,,,,,,,,,,,,,,,,,,,,23.32233752799948,23.33273402100167,23.832876872998895,26.283840012998553,space,2.9350599290046375,None,,,,,,,,,,,,,,,,,,,,,,,,,,,,,,,,,,,,,,,,,,,,,,,,,,,,,,778222,001,2024-05-11_11h19.11.180,stroop experiment,2024.1.4,None,2024-05-11 11h19.23.278511 -0400,
dad,pink,0,0,1,1,0,p,,,,,0,0,0,14,,,,,,,,,26.311161928002548,,,,,,,,,,,,,,,,,,,,,,,26.303058671001054,26.78207786600251,26.78207786600251,27.33493259899842,p,1,0.548957145998429,None,,,,,,,,,,,,,,,,,,,,,,,,,,,,,,,,,,,,,,,,,,,,,,778222,001,2024-05-11_11h19.11.180,stroop experiment,2024.1.4,None,2024-05-11 11h19.23.278511 -0400,
nephew,pink,0,0,1,1,0,p,,,,,0,1,1,19,,,,,,,,,27.34939746100281,,,,,,,,,,,,,,,,,,,,,,,27.336065987998154,27.849625178001588,27.849625178001588,28.334022117996938,p,1,0.47512712399475276,None,,,,,,,,,,,,,,,,,,,,,,,,,,,,,,,,,,,,,,,,,,,,,,778222,001,2024-05-11_11h19.11.180,stroop experiment,2024.1.4,None,2024-05-11 11h19.23.278511 -0400,
grandma,blue,0,0,1,1,0,b,,,,,0,2,2,15,,,,,,,,,28.348382006995962,,,,,,,,,,,,,,,,,,,,,,,28.334853159001796,28.848506551003084,28.848506551003084,29.384790012998565,b,1,0.5336463030034793,None,,,,,,,,,,,,,,,,,,,,,,,,,,,,,,,,,,,,,,,,,,,,,,778222,001,2024-05-11_11h19.11.180,stroop experiment,2024.1.4,None,2024-05-11 11h19.23.278511 -0400,
sister,pink,0,1,0,1,0,p,,,,,0,3,3,13,,,,,,,,,29.399240409999038,,,,,,,,,,,,,,,,,,,,,,,29.385533485998167,29.898694712996075,29.898694712996075,30.350996153996675,p,1,0.44726560799608706,None,,,,,,,,,,,,,,,,,,,,,,,,,,,,,,,,,,,,,,,,,,,,,,778222,001,2024-05-11_11h19.11.180,stroop experiment,2024.1.4,None,2024-05-11 11h19.23.278511 -0400,
gentleman,pink,0,0,1,1,0,p,,,,,0,4,4,4,,,,,,,,,30.36575216300116,,,,,,,,,,,,,,,,,,,,,,,30.351820420000877,30.86585594600183,30.86585594600183,31.333746776996122,p,1,0.45823526899766875,None,,,,,,,,,,,,,,,,,,,,,,,,,,,,,,,,,,,,,,,,,,,,,,778222,001,2024-05-11_11h19.11.180,stroop experiment,2024.1.4,None,2024-05-11 11h19.23.278511 -0400,
son,blue,0,1,0,1,0,b,,,,,0,5,5,6,,,,,,,,,31.348485091999464,,,,,,,,,,,,,,,,,,,,,,,31.334343137998076,31.85004813699925,31.85004813699925,32.36818857400067,b,1,0.5087599580001552,None,,,,,,,,,,,,,,,,,,,,,,,,,,,,,,,,,,,,,,,,,,,,,,778222,001,2024-05-11_11h19.11.180,stroop experiment,2024.1.4,None,2024-05-11 11h19.23.278511 -0400,
female,pink,0,1,0,1,0,p,,,,,0,6,6,0,,,,,,,,,32.38280008699803,,,,,,,,,,,,,,,,,,,,,,,32.369041929996456,32.88214354700176,32.88214354700176,33.401016586998594,p,1,0.5102570230010315,None,,,,,,,,,,,,,,,,,,,,,,,,,,,,,,,,,,,,,,,,,,,,,,778222,001,2024-05-11_11h19.11.180,stroop experiment,2024.1.4,None,2024-05-11 11h19.23.278511 -0400,
handsome,blue,0,1,0,1,0,b,,,,,0,7,7,12,,,,,,,,,33.41506988200126,,,,,,,,,,,,,,,,,,,,,,,33.40184027700161,33.91517122500227,33.91517122500227,34.40129701200203,b,1,0.48112966700136894,None,,,,,,,,,,,,,,,,,,,,,,,,,,,,,,,,,,,,,,,,,,,,,,778222,001,2024-05-11_11h19.11.180,stroop experiment,2024.1.4,None,2024-05-11 11h19.23.278511 -0400,
father,blue,0,1,0,1,0,b,,,,,0,8,8,9,,,,,,,,,34.41602751299797,,,,,,,,,,,,,,,,,,,,,,,34.40213062099792,34.915114835996064,34.915114835996064,35.35231850099808,b,1,0.42199609400267946,None,,,,,,,,,,,,,,,,,,,,,,,,,,,,,,,,,,,,,,,,,,,,,,778222,001,2024-05-11_11h19.11.180,stroop experiment,2024.1.4,None,2024-05-11 11h19.23.278511 -0400,
grandpa,pink,0,0,1,1,0,b,,,,,0,9,9,5,,,,,,,,,35.367306109998026,,,,,,,,,,,,,,,,,,,,,,,35.35332427499816,35.8655403399971,35.8655403399971,36.48608232400147,b,1,0.6047802729954128,None,,,,,,,,,,,,,,,,,,,,,,,,,,,,,,,,,,,,,,,,,,,,,,778222,001,2024-05-11_11h19.11.180,stroop experiment,2024.1.4,None,2024-05-11 11h19.23.278511 -0400,
guy,blue,0,1,0,1,0,b,,,,,0,10,10,17,,,,,,,,,36.50098921600147,,,,,,,,,,,,,,,,,,,,,,,36.48712362199876,36.99880326299899,36.99880326299899,37.71771217700007,b,1,0.7016390239950852,None,,,,,,,,,,,,,,,,,,,,,,,,,,,,,,,,,,,,,,,,,,,,,,778222,001,2024-05-11_11h19.11.180,stroop experiment,2024.1.4,None,2024-05-11 11h19.23.278511 -0400,
damsel,blue,0,0,1,1,0,b,,,,,0,11,11,11,,,,,,,,,37.73204671200074,,,,,,,,,,,,,,,,,,,,,,,37.71827855399897,38.23283214899857,38.23283214899857,39.00038225600292,b,1,0.7510228949977318,None,,,,,,,,,,,,,,,,,,,,,,,,,,,,,,,,,,,,,,,,,,,,,,778222,001,2024-05-11_11h19.11.180,stroop experiment,2024.1.4,None,2024-05-11 11h19.23.278511 -0400,
lady,pink,0,1,0,1,0,p,,,,,0,12,12,16,,,,,,,,,39.01518437599589,,,,,,,,,,,,,,,,,,,,,,,39.00118527899758,39.49831119799637,39.49831119799637,40.035994847996335,p,1,0.518477878998965,None,,,,,,,,,,,,,,,,,,,,,,,,,,,,,,,,,,,,,,,,,,,,,,778222,001,2024-05-11_11h19.11.180,stroop experiment,2024.1.4,None,2024-05-11 11h19.23.278511 -0400,
wife,blue,0,0,1,1,0,b,,,,,0,13,13,7,,,,,,,,,40.05046969900286,,,,,,,,,,,,,,,,,,,,,,,40.036973476999265,40.548910675002844,40.548910675002844,41.135484525999345,b,1,0.5807544970011804,None,,,,,,,,,,,,,,,,,,,,,,,,,,,,,,,,,,,,,,,,,,,,,,778222,001,2024-05-11_11h19.11.180,stroop experiment,2024.1.4,None,2024-05-11 11h19.23.278511 -0400,
daughter,pink,0,1,0,1,0,p,,,,,0,14,14,10,,,,,,,,,41.14970931300195,,,,,,,,,,,,,,,,,,,,,,,41.1362875479972,41.64847224800178,41.64847224800178,42.18575166800292,p,1,0.5322872179967817,None,,,,,,,,,,,,,,,,,,,,,,,,,,,,,,,,,,,,,,,,,,,,,,778222,001,2024-05-11_11h19.11.180,stroop experiment,2024.1.4,None,2024-05-11 11h19.23.278511 -0400,
aunt,blue,0,0,1,1,0,b,,,,,0,15,15,2,,,,,,,,,42.200338322996686,,,,,,,,,,,,,,,,,,,,,,,42.18654717000027,42.698503168998286,42.698503168998286,43.284885455999756,b,1,0.5712390199987567,None,,,,,,,,,,,,,,,,,,,,,,,,,,,,,,,,,,,,,,,,,,,,,,778222,001,2024-05-11_11h19.11.180,stroop experiment,2024.1.4,None,2024-05-11 11h19.23.278511 -0400,
male,pink,0,0,1,1,0,p,,,,,0,16,16,8,,,,,,,,,43.30108662499697,,,,,,,,,,,,,,,,,,,,,,,43.28593286099931,43.798795611997775,43.798795611997775,44.282257888997265,p,1,0.4669280749949394,None,,,,,,,,,,,,,,,,,,,,,,,,,,,,,,,,,,,,,,,,,,,,,,778222,001,2024-05-11_11h19.11.180,stroop experiment,2024.1.4,None,2024-05-11 11h19.23.278511 -0400,
girl,pink,0,1,0,1,0,p,,,,,0,17,17,3,,,,,,,,,44.29946657599794,,,,,,,,,,,,,,,,,,,,,,,44.282796120001876,44.781623490998754,44.781623490998754,45.31754929199815,p,1,0.5217235219970462,None,,,,,,,,,,,,,,,,,,,,,,,,,,,,,,,,,,,,,,,,,,,,,,778222,001,2024-05-11_11h19.11.180,stroop experiment,2024.1.4,None,2024-05-11 11h19.23.278511 -0400,
maid,blue,0,0,1,1,0,b,,,,,0,18,18,18,,,,,,,,,45.33245415300189,,,,,,,,,,,,,,,,,,,,,,,45.31834426400019,45.8315306709992,45.8315306709992,46.39997497299919,b,1,0.5579630419961177,None,,,,,,,,,,,,,,,,,,,,,,,,,,,,,,,,,,,,,,,,,,,,,,778222,001,2024-05-11_11h19.11.180,stroop experiment,2024.1.4,None,2024-05-11 11h19.23.278511 -0400,
uncle,blue,0,1,0,1,0,b,,,,,0,19,19,1,,,,,,,,,46.41492625400133,,,,,,,,,,,,,,,,,,,,,,,46.400705383995955,46.89819307399739,46.89819307399739,47.48385742800019,b,1,0.5760965020017466,None,,,,,,,,,,,,,,,,,,,,,,,,,,,,,,,,,,,,,,,,,,,,,,778222,001,2024-05-11_11h19.11.180,stroop experiment,2024.1.4,None,2024-05-11 11h19.23.278511 -0400,
,,,,,,,,,,,,,,,,,,,,,,,,,,,,,,,,,,,,,,,,,,,,,,,,,,,,,,,47.48447575300088,47.49812878899684,47.998399529999006,49.168259621998004,space,1.6647474549972685,None,,,,,,,,,,,,,,,,,,,,,,,,,,,,,,,,,,,,,,,778222,001,2024-05-11_11h19.11.180,stroop experiment,2024.1.4,None,2024-05-11 11h19.23.278511 -0400,
,,,,,,,,,,,,,,,,,,,,,,,,,,,,,,,,,,,,,,,,,,,,,,,,,,,,,,,,,,,,,,49.168343810000806,49.18176212000253,49.68224238399853,60.78404697099904,space,11.595062157997745,None,,,,,,,,,,,,,,,,,,,,,,,,,,,,,,,,778222,001,2024-05-11_11h19.11.180,stroop experiment,2024.1.4,None,2024-05-11 11h19.23.278511 -0400,
dad,pink,1,0,1,0,1,m,,,,,,,,,0,0,0,1,,,,,60.80987165700208,,,,,,,,,,,,,,,,,,,,,,,,,,,,,,,,,,,,,,,,,,,,,60.80007250700146,61.29805299099826,61.29805299099826,63.349507425999036,m,2.0430654490046436,None,,,,,,,,,,,,,,,,,,,,,,,,,778222,001,2024-05-11_11h19.11.180,stroop experiment,2024.1.4,None,2024-05-11 11h19.23.278511 -0400,
man,blue,1,1,0,0,1,m,,,,,,,,,0,1,1,4,,,,,63.36480750299961,,,,,,,,,,,,,,,,,,,,,,,,,,,,,,,,,,,,,,,,,,,,,63.35022571100126,63.8652808629995,63.8652808629995,64.55123049800022,m,0.6775995179996244,None,,,,,,,,,,,,,,,,,,,,,,,,,778222,001,2024-05-11_11h19.11.180,stroop experiment,2024.1.4,None,2024-05-11 11h19.23.278511 -0400,
mother,pink,1,1,0,0,1,f,,,,,,,,,0,2,2,3,,,,,64.56476743100211,,,,,,,,,,,,,,,,,,,,,,,,,,,,,,,,,,,,,,,,,,,,,64.55195272200217,65.06480690099852,65.06480690099852,66.45077984799718,f,1.372731876996113,None,,,,,,,,,,,,,,,,,,,,,,,,,778222,001,2024-05-11_11h19.11.180,stroop experiment,2024.1.4,None,2024-05-11 11h19.23.278511 -0400,
aunt,blue,1,0,1,0,1,f,,,,,,,,,0,3,3,0,,,,,66.46520715000224,,,,,,,,,,,,,,,,,,,,,,,,,,,,,,,,,,,,,,,,,,,,,66.4517012590004,66.96550612899591,66.96550612899591,67.8497230360008,f,0.8750716529975762,None,,,,,,,,,,,,,,,,,,,,,,,,,778222,001,2024-05-11_11h19.11.180,stroop experiment,2024.1.4,None,2024-05-11 11h19.23.278511 -0400,
female,blue,1,0,1,0,1,f,,,,,,,,,0,4,4,2,,,,,67.86499202899722,,,,,,,,,,,,,,,,,,,,,,,,,,,,,,,,,,,,,,,,,,,,,67.85034192199964,68.36463957399974,68.36463957399974,69.00063701999898,f,0.6302851660002489,None,,,,,,,,,,,,,,,,,,,,,,,,,778222,001,2024-05-11_11h19.11.180,stroop experiment,2024.1.4,None,2024-05-11 11h19.23.278511 -0400,
,,,,,,,,,,,,,,,,,,,,,,,,,,,,,,,,,,,,,,,,,,,,,,,,,,,,,,,,,,,,,,,,,,,,,,,,,,,,69.00117624399718,69.01449955799762,69.51528425300057,71.26697565799986,space,2.2427180750019033,None,,,,,,,,,,,,,,,,,,778222,001,2024-05-11_11h19.11.180,stroop experiment,2024.1.4,None,2024-05-11 11h19.23.278511 -0400,
aunt,pink,0,1,0,0,1,f,,,,,,,,,,,,,0,0,0,0,71.30157403899648,,,,,,,,,,,,,,,,,,,,,,,,,,,,,,,,,,,,,,,,,,,,,,,,,,,,,,,,,,,71.28912110099918,71.76527659299609,71.76527659299609,72.88550353200117,f,1,1.1145100319990888,None,,,,,,,,,,778222,001,2024-05-11_11h19.11.180,stroop experiment,2024.1.4,None,2024-05-11 11h19.23.278511 -0400,
handsome,blue,0,1,0,0,1,m,,,,,,,,,,,,,0,1,1,16,72.89975797000079,,,,,,,,,,,,,,,,,,,,,,,,,,,,,,,,,,,,,,,,,,,,,,,,,,,,,,,,,,,72.88664171099663,73.39341123300255,73.39341123300255,126.09814305700274,f,0,52.69475323199731,None,78.39954603099613,,,,,,,,,778222,001,2024-05-11_11h19.11.180,stroop experiment,2024.1.4,None,2024-05-11 11h19.23.278511 -0400,
gentleman,pink,0,0,1,0,1,m,,,,,,,,,,,,,0,2,2,18,126.11388647199783,,,,,,,,,,,,,,,,,,,,,,,,,,,,,,,,,,,,,,,,,,,,,,,,,,,,,,,,,,,126.0986430319972,126.59807230700244,126.59807230700244,126.74953997400007,f,0,0.13978891800070414,None,,,,,,,,,,778222,001,2024-05-11_11h19.11.180,stroop experiment,2024.1.4,None,2024-05-11 11h19.23.278511 -0400,
wife,blue,0,0,1,0,1,f,,,,,,,,,,,,,0,3,3,10,126.76462321799772,,,,,,,,,,,,,,,,,,,,,,,,,,,,,,,,,,,,,,,,,,,,,,,,,,,,,,,,,,,126.75034271099867,127.26507886099716,127.26507886099716,131.63656336299755,f,1,4.364710459994967,None,,,,,,,,,,778222,001,2024-05-11_11h19.11.180,stroop experiment,2024.1.4,None,2024-05-11 11h19.23.278511 -0400,
female,blue,0,0,1,0,1,f,,,,,,,,,,,,,0,4,4,6,131.64900466599647,,,,,,,,,,,,,,,,,,,,,,,,,,,,,,,,,,,,,,,,,,,,,,,,,,,,,,,,,,,131.6370150090006,132.13384275099816,132.13384275099816,133.68435102199874,f,1,1.5401006729953224,None,,,,,,,,,,778222,001,2024-05-11_11h19.11.180,stroop experiment,2024.1.4,None,2024-05-11 11h19.23.278511 -0400,
girls,pink,0,1,0,0,1,f,,,,,,,,,,,,,0,5,5,12,133.699326492002,,,,,,,,,,,,,,,,,,,,,,,,,,,,,,,,,,,,,,,,,,,,,,,,,,,,,,,,,,,133.68537235399708,134.1971227039976,134.1971227039976,134.88548734600045,f,1,0.6843263959963224,None,,,,,,,,,,778222,001,2024-05-11_11h19.11.180,stroop experiment,2024.1.4,None,2024-05-11 11h19.23.278511 -0400,
uncle,blue,0,1,0,0,1,m,,,,,,,,,,,,,0,6,6,1,134.8996930880021,,,,,,,,,,,,,,,,,,,,,,,,,,,,,,,,,,,,,,,,,,,,,,,,,,,,,,,,,,,134.8863347450024,135.39749432999815,135.39749432999815,136.06596197799809,m,1,0.6605809329994372,None,,,,,,,,,,778222,001,2024-05-11_11h19.11.180,stroop experiment,2024.1.4,None,2024-05-11 11h19.23.278511 -0400,
nephew,pink,0,0,1,0,1,m,,,,,,,,,,,,,0,7,7,7,136.0802092379963,,,,,,,,,,,,,,,,,,,,,,,,,,,,,,,,,,,,,,,,,,,,,,,,,,,,,,,,,,,136.06669061999855,136.58180584899674,136.58180584899674,137.2166190909993,m,1,0.6293409210047685,None,,,,,,,,,,778222,001,2024-05-11_11h19.11.180,stroop experiment,2024.1.4,None,2024-05-11 11h19.23.278511 -0400,
father,blue,0,1,0,0,1,m,,,,,,,,,,,,,0,8,8,13,137.23087393100286,,,,,,,,,,,,,,,,,,,,,,,,,,,,,,,,,,,,,,,,,,,,,,,,,,,,,,,,,,,137.21735259499837,137.73212149799656,137.73212149799656,138.3332451419992,m,1,0.5834808649960905,None,,,,,,,,,,778222,001,2024-05-11_11h19.11.180,stroop experiment,2024.1.4,None,2024-05-11 11h19.23.278511 -0400,
sister,pink,0,1,0,0,1,f,,,,,,,,,,,,,0,9,9,8,138.34805205900193,,,,,,,,,,,,,,,,,,,,,,,,,,,,,,,,,,,,,,,,,,,,,,,,,,,,,,,,,,,138.33425999199972,138.8475503879963,138.8475503879963,139.59962665999774,f,1,0.7376251140012755,None,,,,,,,,,,778222,001,2024-05-11_11h19.11.180,stroop experiment,2024.1.4,None,2024-05-11 11h19.23.278511 -0400,
man,pink,0,0,1,0,1,m,,,,,,,,,,,,,0,10,10,11,139.61463487100264,,,,,,,,,,,,,,,,,,,,,,,,,,,,,,,,,,,,,,,,,,,,,,,,,,,,,,,,,,,139.6005616170005,140.11477845100308,140.11477845100308,140.69845267399796,m,1,0.579863925006066,None,,,,,,,,,,778222,001,2024-05-11_11h19.11.180,stroop experiment,2024.1.4,None,2024-05-11 11h19.23.278511 -0400,
boys,pink,0,0,1,0,1,m,,,,,,,,,,,,,0,11,11,15,140.71316333799768,,,,,,,,,,,,,,,,,,,,,,,,,,,,,,,,,,,,,,,,,,,,,,,,,,,,,,,,,,,140.6988786639995,141.197089356996,141.197089356996,141.8488012960006,m,1,0.6349974059994565,None,,,,,,,,,,778222,001,2024-05-11_11h19.11.180,stroop experiment,2024.1.4,None,2024-05-11 11h19.23.278511 -0400,
damsel,pink,0,1,0,0,1,f,,,,,,,,,,,,,0,12,12,4,141.86376124399976,,,,,,,,,,,,,,,,,,,,,,,,,,,,,,,,,,,,,,,,,,,,,,,,,,,,,,,,,,,141.84961641299742,142.34746589599672,142.34746589599672,143.16527110400057,f,1,0.8028306449996307,None,,,,,,,,,,778222,001,2024-05-11_11h19.11.180,stroop experiment,2024.1.4,None,2024-05-11 11h19.23.278511 -0400,
daughter,blue,0,0,1,0,1,f,,,,,,,,,,,,,0,13,13,14,143.18024755299848,,,,,,,,,,,,,,,,,,,,,,,,,,,,,,,,,,,,,,,,,,,,,,,,,,,,,,,,,,,143.16611744799593,143.68153519499901,143.68153519499901,144.48146149500099,f,1,0.7954958959962823,None,,,,,,,,,,778222,001,2024-05-11_11h19.11.180,stroop experiment,2024.1.4,None,2024-05-11 11h19.23.278511 -0400,
dad,pink,0,0,1,0,1,m,,,,,,,,,,,,,0,14,14,2,144.49708568299684,,,,,,,,,,,,,,,,,,,,,,,,,,,,,,,,,,,,,,,,,,,,,,,,,,,,,,,,,,,144.48187390199746,145.02527587799705,145.02527587799705,145.58174940999743,m,1,0.5537021639975137,None,,,,,,,,,,778222,001,2024-05-11_11h19.11.180,stroop experiment,2024.1.4,None,2024-05-11 11h19.23.278511 -0400,
guy,blue,0,1,0,0,1,m,,,,,,,,,,,,,0,15,15,3,145.59651552599826,,,,,,,,,,,,,,,,,,,,,,,,,,,,,,,,,,,,,,,,,,,,,,,,,,,,,,,,,,,145.58218679499987,146.0805843240014,146.0805843240014,146.73313401499763,m,1,0.6475375900045037,None,,,,,,,,,,778222,001,2024-05-11_11h19.11.180,stroop experiment,2024.1.4,None,2024-05-11 11h19.23.278511 -0400,
lady,blue,0,0,1,0,1,f,,,,,,,,,,,,,0,16,16,19,146.74756935399637,,,,,,,,,,,,,,,,,,,,,,,,,,,,,,,,,,,,,,,,,,,,,,,,,,,,,,,,,,,146.73396568099997,147.2475843459979,147.2475843459979,148.0007214799989,f,1,0.7382644870012882,None,,,,,,,,,,778222,001,2024-05-11_11h19.11.180,stroop experiment,2024.1.4,None,2024-05-11 11h19.23.278511 -0400,
man,blue,0,1,0,0,1,m,,,,,,,,,,,,,0,17,17,9,148.0152672789991,,,,,,,,,,,,,,,,,,,,,,,,,,,,,,,,,,,,,,,,,,,,,,,,,,,,,,,,,,,148.00152984199667,148.51371555300284,148.51371555300284,149.08474531400134,m,1,0.5637283200048842,None,,,,,,,,,,778222,001,2024-05-11_11h19.11.180,stroop experiment,2024.1.4,None,2024-05-11 11h19.23.278511 -0400,
madam,pink,0,1,0,0,1,f,,,,,,,,,,,,,0,18,18,17,149.0994703969991,,,,,,,,,,,,,,,,,,,,,,,,,,,,,,,,,,,,,,,,,,,,,,,,,,,,,,,,,,,149.08558882900252,149.59724550099781,149.59724550099781,151.63389610299782,f,1,2.02154624099785,None,,,,,,,,,,778222,001,2024-05-11_11h19.11.180,stroop experiment,2024.1.4,None,2024-05-11 11h19.23.278511 -0400,
mother,blue,0,0,1,0,1,f,,,,,,,,,,,,,0,19,19,5,151.64812753599836,,,,,,,,,,,,,,,,,,,,,,,,,,,,,,,,,,,,,,,,,,,,,,,,,,,,,,,,,,,151.6347090220006,152.14744124499703,152.14744124499703,152.6849350880002,f,1,0.5346005829997011,None,,,,,,,,,,778222,001,2024-05-11_11h19.11.180,stroop experiment,2024.1.4,None,2024-05-11 11h19.23.278511 -0400,
,,,,,,,,,,,,,,,,,,,,,,,,,,,,,,,,,,,,,,,,,,,,,,,,,,,,,,,,,,,,,,,,,,,,,,,,,,,,,,,,,,,,,,,,,,,,152.68547625400242,152.6971913430025,152.6971913430025,153.69850263099943,163.50018689999706,space,10.797473843005719,None,778222,001,2024-05-11_11h19.11.180,stroop experiment,2024.1.4,None,2024-05-11 11h19.23.278511 -0400,
