word,color,practice,congruent,incongruent,CN,GC,corrAns,CNpractice.thisRepN,CNpractice.thisTrialN,CNpractice.thisN,CNpractice.thisIndex,CNtrials.thisRepN,CNtrials.thisTrialN,CNtrials.thisN,CNtrials.thisIndex,GCpractice.thisRepN,GCpractice.thisTrialN,GCpractice.thisN,GCpractice.thisIndex,GCtrials.thisRepN,GCtrials.thisTrialN,GCtrials.thisN,GCtrials.thisIndex,thisRow.t,notes,CN_instructions1.started,key_resp_2.started,text.started,CN_instructions1.stopped,key_resp_2.keys,key_resp_2.rt,key_resp_2.duration,CNpracticetrials.started,practicetask1.started,practicetaskkeys.started,CNpracticetrials.stopped,practicetaskkeys.keys,practicetaskkeys.rt,practicetaskkeys.duration,CN_instructions2.started,key_resp.started,instrText.started,CN_instructions2.stopped,key_resp.keys,key_resp.rt,key_resp.duration,colornaming.started,target.started,response.started,colornaming.stopped,response.keys,response.corr,response.rt,response.duration,CNend.started,key_resp_3.started,text_2.started,CNend.stopped,key_resp_3.keys,key_resp_3.rt,key_resp_3.duration,GC_instructions1.started,key_resp_4.started,text_3.started,GC_instructions1.stopped,key_resp_4.keys,key_resp_4.rt,key_resp_4.duration,GCpracticetrials.started,text_6.started,key_resp_8.started,text_6.stopped,GCpracticetrials.stopped,key_resp_8.keys,key_resp_8.rt,key_resp_8.duration,GC_instructions2.started,key_resp_6.started,GC_instructions2.stopped,key_resp_6.keys,key_resp_6.rt,key_resp_6.duration,gendercategorization.started,trial_task_2_text.started,key_resp_5.started,gendercategorization.stopped,key_resp_5.keys,key_resp_5.corr,key_resp_5.rt,key_resp_5.duration,final_message.started,text_4.started,key_resp_7.started,final_message.stopped,key_resp_7.keys,key_resp_7.rt,key_resp_7.duration,participant,session,date,expName,psychopyVersion,frameRate,expStart,
,,,,,,,,,,,,,,,,,,,,,,,,,,0.02167631399788661,0.0330672469935962,0.5082763719983632,2.269410572000197,space,2.230783514001814,None,,,,,,,,,,,,,,,,,,,,,,,,,,,,,,,,,,,,,,,,,,,,,,,,,,,,,,,,,,,,,,,,,,936615,001,2024-05-11_12h37.18.678,stroop experiment,2024.1.4,None,2024-05-11 12h37.30.273726 -0400,
female,pink,1,1,0,1,0,p,0,0,0,0,,,,,,,,,,,,,2.2918969949969323,,,,,,,,,2.2807216769942897,2.781745801999932,2.781745801999932,5.236689208999451,p,2.439325204002671,None,,,,,,,,,,,,,,,,,,,,,,,,,,,,,,,,,,,,,,,,,,,,,,,,,,,,,,,,,,,936615,001,2024-05-11_12h37.18.678,stroop experiment,2024.1.4,None,2024-05-11 12h37.30.273726 -0400,
mother,pink,1,1,0,1,0,p,0,1,1,4,,,,,,,,,,,,,5.25014151600044,,,,,,,,,5.237383179999597,5.750157953996677,5.750157953996677,6.202377630994306,p,0.4425180390026071,None,,,,,,,,,,,,,,,,,,,,,,,,,,,,,,,,,,,,,,,,,,,,,,,,,,,,,,,,,,,936615,001,2024-05-11_12h37.18.678,stroop experiment,2024.1.4,None,2024-05-11 12h37.30.273726 -0400,
husband,pink,1,0,1,1,0,b,0,2,2,2,,,,,,,,,,,,,6.217431285993371,,,,,,,,,6.202767647999281,6.71537042199634,6.71537042199634,7.07143701199675,p,0.34905720899405424,None,,,,,,,,,,,,,,,,,,,,,,,,,,,,,,,,,,,,,,,,,,,,,,,,,,,,,,,,,,,936615,001,2024-05-11_12h37.18.678,stroop experiment,2024.1.4,None,2024-05-11 12h37.30.273726 -0400,
boy,blue,1,1,0,1,0,b,0,3,3,1,,,,,,,,,,,,,7.085882596998999,,,,,,,,,7.0720295009959955,7.583369871994364,7.583369871994364,7.93660441099928,b,0.3280708419988514,None,,,,,,,,,,,,,,,,,,,,,,,,,,,,,,,,,,,,,,,,,,,,,,,,,,,,,,,,,,,936615,001,2024-05-11_12h37.18.678,stroop experiment,2024.1.4,None,2024-05-11 12h37.30.273726 -0400,
niece,blue,1,0,1,1,0,b,0,4,4,3,,,,,,,,,,,,,7.948831505993439,,,,,,,,,7.937306914995133,8.448704021000594,8.448704021000594,8.769754933993681,b,0.3193270379997557,None,,,,,,,,,,,,,,,,,,,,,,,,,,,,,,,,,,,,,,,,,,,,,,,,,,,,,,,,,,,936615,001,2024-05-11_12h37.18.678,stroop experiment,2024.1.4,None,2024-05-11 12h37.30.273726 -0400,
,,,,,,,,,,,,,,,,,,,,,,,,,,,,,,,,,,,,,,,,8.770196621997457,8.78197390800051,9.281188880995614,9.906506744999206,space,1.1195547349998378,None,,,,,,,,,,,,,,,,,,,,,,,,,,,,,,,,,,,,,,,,,,,,,,,,,,,,936615,001,2024-05-11_12h37.18.678,stroop experiment,2024.1.4,None,2024-05-11 12h37.30.273726 -0400,
gentleman,pink,0,0,1,1,0,p,,,,,0,0,0,4,,,,,,,,,9.935834708994662,,,,,,,,,,,,,,,,,,,,,,,9.923160623999138,10.417837607994443,10.417837607994443,10.85398152199923,p,1,0.4244842379994225,None,,,,,,,,,,,,,,,,,,,,,,,,,,,,,,,,,,,,,,,,,,,,936615,001,2024-05-11_12h37.18.678,stroop experiment,2024.1.4,None,2024-05-11 12h37.30.273726 -0400,
son,blue,0,1,0,1,0,b,,,,,0,1,1,6,,,,,,,,,10.869064546997834,,,,,,,,,,,,,,,,,,,,,,,10.85464864399546,11.365368702994601,11.365368702994601,11.76583092299552,b,1,0.3869423740034108,None,,,,,,,,,,,,,,,,,,,,,,,,,,,,,,,,,,,,,,,,,,,,936615,001,2024-05-11_12h37.18.678,stroop experiment,2024.1.4,None,2024-05-11 12h37.30.273726 -0400,
dad,pink,0,0,1,1,0,p,,,,,0,2,2,14,,,,,,,,,11.783597801993892,,,,,,,,,,,,,,,,,,,,,,,11.766260693999357,12.264597269997466,12.264597269997466,12.6192542639983,p,1,0.34812589000648586,None,,,,,,,,,,,,,,,,,,,,,,,,,,,,,,,,,,,,,,,,,,,,936615,001,2024-05-11_12h37.18.678,stroop experiment,2024.1.4,None,2024-05-11 12h37.30.273726 -0400,
guy,blue,0,1,0,1,0,b,,,,,0,3,3,17,,,,,,,,,12.631885536997288,,,,,,,,,,,,,,,,,,,,,,,12.619687957994756,13.131895143997099,13.131895143997099,13.516898231995583,b,1,0.37909767000383,None,,,,,,,,,,,,,,,,,,,,,,,,,,,,,,,,,,,,,,,,,,,,936615,001,2024-05-11_12h37.18.678,stroop experiment,2024.1.4,None,2024-05-11 12h37.30.273726 -0400,
grandpa,pink,0,0,1,1,0,b,,,,,0,4,4,5,,,,,,,,,13.531164775995421,,,,,,,,,,,,,,,,,,,,,,,13.517367647997162,14.031306281998695,14.031306281998695,14.450451912998687,p,0,0.41018423400237225,None,,,,,,,,,,,,,,,,,,,,,,,,,,,,,,,,,,,,,,,,,,,,936615,001,2024-05-11_12h37.18.678,stroop experiment,2024.1.4,None,2024-05-11 12h37.30.273726 -0400,
father,blue,0,1,0,1,0,b,,,,,0,5,5,9,,,,,,,,,14.466318320999562,,,,,,,,,,,,,,,,,,,,,,,14.45115574800002,14.964274603997183,14.964274603997183,15.36860446100036,b,1,0.40246209500037367,None,,,,,,,,,,,,,,,,,,,,,,,,,,,,,,,,,,,,,,,,,,,,936615,001,2024-05-11_12h37.18.678,stroop experiment,2024.1.4,None,2024-05-11 12h37.30.273726 -0400,
handsome,blue,0,1,0,1,0,b,,,,,0,6,6,12,,,,,,,,,15.383341369997652,,,,,,,,,,,,,,,,,,,,,,,15.369828536997375,15.879016286999104,15.879016286999104,15.983250754994515,b,1,0.09025960500002839,None,,,,,,,,,,,,,,,,,,,,,,,,,,,,,,,,,,,,,,,,,,,,936615,001,2024-05-11_12h37.18.678,stroop experiment,2024.1.4,None,2024-05-11 12h37.30.273726 -0400,
sister,pink,0,1,0,1,0,p,,,,,0,7,7,13,,,,,,,,,15.998961722994864,,,,,,,,,,,,,,,,,,,,,,,15.98406006499863,16.481066653999733,16.481066653999733,16.81699859999935,b,0,0.32744866200664546,None,,,,,,,,,,,,,,,,,,,,,,,,,,,,,,,,,,,,,,,,,,,,936615,001,2024-05-11_12h37.18.678,stroop experiment,2024.1.4,None,2024-05-11 12h37.30.273726 -0400,
female,pink,0,1,0,1,0,p,,,,,0,8,8,0,,,,,,,,,16.831148603996553,,,,,,,,,,,,,,,,,,,,,,,16.817514766000386,17.331312187998265,17.331312187998265,17.59984786199493,b,0,0.25406538599781925,None,,,,,,,,,,,,,,,,,,,,,,,,,,,,,,,,,,,,,,,,,,,,936615,001,2024-05-11_12h37.18.678,stroop experiment,2024.1.4,None,2024-05-11 12h37.30.273726 -0400,
daughter,pink,0,1,0,1,0,p,,,,,0,9,9,10,,,,,,,,,17.615427270997316,,,,,,,,,,,,,,,,,,,,,,,17.60054471899639,18.11489517999871,18.11489517999871,18.434268766999594,p,1,0.31335111599764787,None,,,,,,,,,,,,,,,,,,,,,,,,,,,,,,,,,,,,,,,,,,,,936615,001,2024-05-11_12h37.18.678,stroop experiment,2024.1.4,None,2024-05-11 12h37.30.273726 -0400,
lady,pink,0,1,0,1,0,p,,,,,0,10,10,16,,,,,,,,,18.448916350993386,,,,,,,,,,,,,,,,,,,,,,,18.434899562998908,18.947624258995347,18.947624258995347,18.949484729993856,p,1,0.7899124440009473,None,,,,,,,,,,,,,,,,,,,,,,,,,,,,,,,,,,,,,,,,,,,,936615,001,2024-05-11_12h37.18.678,stroop experiment,2024.1.4,None,2024-05-11 12h37.30.273726 -0400,
wife,blue,0,0,1,1,0,b,,,,,0,11,11,7,,,,,,,,,18.964421325996227,,,,,,,,,,,,,,,,,,,,,,,18.949935810996976,19.46500953699433,19.46500953699433,19.83399082699907,b,1,0.3536846979986876,None,,,,,,,,,,,,,,,,,,,,,,,,,,,,,,,,,,,,,,,,,,,,936615,001,2024-05-11_12h37.18.678,stroop experiment,2024.1.4,None,2024-05-11 12h37.30.273726 -0400,
girl,pink,0,1,0,1,0,p,,,,,0,12,12,3,,,,,,,,,19.8484361899973,,,,,,,,,,,,,,,,,,,,,,,19.834688352995727,20.348831347997475,20.348831347997475,20.51495225099643,p,1,0.14997592899453593,None,,,,,,,,,,,,,,,,,,,,,,,,,,,,,,,,,,,,,,,,,,,,936615,001,2024-05-11_12h37.18.678,stroop experiment,2024.1.4,None,2024-05-11 12h37.30.273726 -0400,
maid,blue,0,0,1,1,0,b,,,,,0,13,13,18,,,,,,,,,20.531283224998333,,,,,,,,,,,,,,,,,,,,,,,20.515400390999275,21.015261718996044,21.015261718996044,21.285273531997518,p,0,0.26385814099921845,None,,,,,,,,,,,,,,,,,,,,,,,,,,,,,,,,,,,,,,,,,,,,936615,001,2024-05-11_12h37.18.678,stroop experiment,2024.1.4,None,2024-05-11 12h37.30.273726 -0400,
nephew,pink,0,0,1,1,0,p,,,,,0,14,14,19,,,,,,,,,21.302314516993647,,,,,,,,,,,,,,,,,,,,,,,21.286063297993678,21.798957843995595,21.798957843995595,22.066539434999868,p,1,0.25153110200335504,None,,,,,,,,,,,,,,,,,,,,,,,,,,,,,,,,,,,,,,,,,,,,936615,001,2024-05-11_12h37.18.678,stroop experiment,2024.1.4,None,2024-05-11 12h37.30.273726 -0400,
grandma,blue,0,0,1,1,0,b,,,,,0,15,15,15,,,,,,,,,22.08177020400035,,,,,,,,,,,,,,,,,,,,,,,22.067241646000184,22.581364872996346,22.581364872996346,22.836161777995585,p,0,0.23432548900018446,None,,,,,,,,,,,,,,,,,,,,,,,,,,,,,,,,,,,,,,,,,,,,936615,001,2024-05-11_12h37.18.678,stroop experiment,2024.1.4,None,2024-05-11 12h37.30.273726 -0400,
male,pink,0,0,1,1,0,p,,,,,0,16,16,8,,,,,,,,,22.848197737999726,,,,,,,,,,,,,,,,,,,,,,,22.836687309994886,23.34934724499908,23.34934724499908,23.9319942239963,p,1,0.5669242479998502,None,,,,,,,,,,,,,,,,,,,,,,,,,,,,,,,,,,,,,,,,,,,,936615,001,2024-05-11_12h37.18.678,stroop experiment,2024.1.4,None,2024-05-11 12h37.30.273726 -0400,
damsel,blue,0,0,1,1,0,b,,,,,0,17,17,11,,,,,,,,,23.948999718995765,,,,,,,,,,,,,,,,,,,,,,,23.932695719995536,24.43128728199372,24.43128728199372,24.933605910999177,b,1,0.4862984970022808,None,,,,,,,,,,,,,,,,,,,,,,,,,,,,,,,,,,,,,,,,,,,,936615,001,2024-05-11_12h37.18.678,stroop experiment,2024.1.4,None,2024-05-11 12h37.30.273726 -0400,
aunt,blue,0,0,1,1,0,b,,,,,0,18,18,2,,,,,,,,,24.947470952000003,,,,,,,,,,,,,,,,,,,,,,,24.934209676997853,25.449895110999933,25.449895110999933,26.016751568000473,b,1,0.5590399470020202,None,,,,,,,,,,,,,,,,,,,,,,,,,,,,,,,,,,,,,,,,,,,,936615,001,2024-05-11_12h37.18.678,stroop experiment,2024.1.4,None,2024-05-11 12h37.30.273726 -0400,
uncle,blue,0,1,0,1,0,b,,,,,0,19,19,1,,,,,,,,,26.031508624997514,,,,,,,,,,,,,,,,,,,,,,,26.0174386639992,26.532735573993705,26.532735573993705,27.467476881996845,b,1,0.9195897949975915,None,,,,,,,,,,,,,,,,,,,,,,,,,,,,,,,,,,,,,,,,,,,,936615,001,2024-05-11_12h37.18.678,stroop experiment,2024.1.4,None,2024-05-11 12h37.30.273726 -0400,
,,,,,,,,,,,,,,,,,,,,,,,,,,,,,,,,,,,,,,,,,,,,,,,,,,,,,,,27.468097938995925,27.481607363995863,27.981938207994972,28.75237684599415,space,1.2598884559993166,None,,,,,,,,,,,,,,,,,,,,,,,,,,,,,,,,,,,,,936615,001,2024-05-11_12h37.18.678,stroop experiment,2024.1.4,None,2024-05-11 12h37.30.273726 -0400,
,,,,,,,,,,,,,,,,,,,,,,,,,,,,,,,,,,,,,,,,,,,,,,,,,,,,,,,,,,,,,,28.752442608994897,28.765394017995277,29.26552040399838,30.79985500499606,space,2.021525691001443,None,,,,,,,,,,,,,,,,,,,,,,,,,,,,,,936615,001,2024-05-11_12h37.18.678,stroop experiment,2024.1.4,None,2024-05-11 12h37.30.273726 -0400,
aunt,blue,1,0,1,0,1,f,,,,,,,,,0,0,0,0,,,,,30.822852419994888,,,,,,,,,,,,,,,,,,,,,,,,,,,,,,,,,,,,,,,,,,,,,30.813145258995064,31.297880586993415,31.297880586993415,35.298424766995595,42.384502221997536,m,11.081319837001502,None,,,,,,,,,,,,,,,,,,,,,,936615,001,2024-05-11_12h37.18.678,stroop experiment,2024.1.4,None,2024-05-11 12h37.30.273726 -0400,
dad,pink,1,0,1,0,1,m,,,,,,,,,0,1,1,1,,,,,42.399098433998006,,,,,,,,,,,,,,,,,,,,,,,,,,,,,,,,,,,,,,,,,,,,,42.38550237799791,42.898272497994185,42.898272497994185,,46.1841478599963,m,3.2754881829969236,None,,,,,,,,,,,,,,,,,,,,,,936615,001,2024-05-11_12h37.18.678,stroop experiment,2024.1.4,None,2024-05-11 12h37.30.273726 -0400,
man,blue,1,1,0,0,1,m,,,,,,,,,0,2,2,4,,,,,46.19955407299858,,,,,,,,,,,,,,,,,,,,,,,,,,,,,,,,,,,,,,,,,,,,,46.18507198400039,46.698226117994636,46.698226117994636,,48.40199436599505,f,1.6864206429963815,None,,,,,,,,,,,,,,,,,,,,,,936615,001,2024-05-11_12h37.18.678,stroop experiment,2024.1.4,None,2024-05-11 12h37.30.273726 -0400,
female,blue,1,0,1,0,1,f,,,,,,,,,0,3,3,2,,,,,48.41770715599705,,,,,,,,,,,,,,,,,,,,,,,,,,,,,,,,,,,,,,,,,,,,,48.40290604499751,48.91459871799452,48.91459871799452,,51.549114237997856,f,2.6210310739988927,None,,,,,,,,,,,,,,,,,,,,,,936615,001,2024-05-11_12h37.18.678,stroop experiment,2024.1.4,None,2024-05-11 12h37.30.273726 -0400,
mother,pink,1,1,0,0,1,f,,,,,,,,,0,4,4,3,,,,,51.565168976994755,,,,,,,,,,,,,,,,,,,,,,,,,,,,,,,,,,,,,,,,,,,,,51.54964619399834,52.04828642999928,52.04828642999928,,52.45134985699406,m,0.3966114079958061,None,,,,,,,,,,,,,,,,,,,,,,936615,001,2024-05-11_12h37.18.678,stroop experiment,2024.1.4,None,2024-05-11 12h37.30.273726 -0400,
,,,,,,,,,,,,,,,,,,,,,,,,,,,,,,,,,,,,,,,,,,,,,,,,,,,,,,,,,,,,,,,,,,,,,,,,,,,,,52.45197731399821,52.46438994199707,52.46671196299576,space,None,None,,,,,,,,,,,,,,,,936615,001,2024-05-11_12h37.18.678,stroop experiment,2024.1.4,None,2024-05-11 12h37.30.273726 -0400,
man,blue,0,1,0,0,1,m,,,,,,,,,,,,,0,0,0,9,52.49555004199647,,,,,,,,,,,,,,,,,,,,,,,,,,,,,,,,,,,,,,,,,,,,,,,,,,,,,,,,,,,52.48717751699587,52.980702578999626,52.980702578999626,53.5327366509955,m,1,0.5420840959995985,None,,,,,,,,936615,001,2024-05-11_12h37.18.678,stroop experiment,2024.1.4,None,2024-05-11 12h37.30.273726 -0400,
wife,blue,0,0,1,0,1,f,,,,,,,,,,,,,0,1,1,10,53.54728402899491,,,,,,,,,,,,,,,,,,,,,,,,,,,,,,,,,,,,,,,,,,,,,,,,,,,,,,,,,,,53.53353171499475,54.04755834999378,54.04755834999378,55.21655857299629,f,1,1.1541432369995164,None,,,,,,,,936615,001,2024-05-11_12h37.18.678,stroop experiment,2024.1.4,None,2024-05-11 12h37.30.273726 -0400,
madam,pink,0,1,0,0,1,f,,,,,,,,,,,,,0,2,2,17,55.23155299199425,,,,,,,,,,,,,,,,,,,,,,,,,,,,,,,,,,,,,,,,,,,,,,,,,,,,,,,,,,,55.21737451499939,55.73268891299813,55.73268891299813,56.254741416996694,m,0,0.5064041770019685,None,,,,,,,,936615,001,2024-05-11_12h37.18.678,stroop experiment,2024.1.4,None,2024-05-11 12h37.30.273726 -0400,
sister,pink,0,1,0,0,1,f,,,,,,,,,,,,,0,3,3,8,56.29286245099502,,,,,,,,,,,,,,,,,,,,,,,,,,,,,,,,,,,,,,,,,,,,,,,,,,,,,,,,,,,56.268772591000015,56.78162384299503,56.78162384299503,58.16540050799813,f,1,1.3675809589985874,None,,,,,,,,936615,001,2024-05-11_12h37.18.678,stroop experiment,2024.1.4,None,2024-05-11 12h37.30.273726 -0400,
man,pink,0,0,1,0,1,m,,,,,,,,,,,,,0,4,4,11,58.18171417299891,,,,,,,,,,,,,,,,,,,,,,,,,,,,,,,,,,,,,,,,,,,,,,,,,,,,,,,,,,,58.165855413993995,58.66609121799411,58.66609121799411,59.400984751999204,m,1,0.729075039998861,None,,,,,,,,936615,001,2024-05-11_12h37.18.678,stroop experiment,2024.1.4,None,2024-05-11 12h37.30.273726 -0400,
gentleman,pink,0,0,1,0,1,m,,,,,,,,,,,,,0,5,5,18,59.417025577997265,,,,,,,,,,,,,,,,,,,,,,,,,,,,,,,,,,,,,,,,,,,,,,,,,,,,,,,,,,,59.40179371999693,59.91507355199428,59.91507355199428,60.48280948599859,m,1,0.5581351240034564,None,,,,,,,,936615,001,2024-05-11_12h37.18.678,stroop experiment,2024.1.4,None,2024-05-11 12h37.30.273726 -0400,
mother,blue,0,0,1,0,1,f,,,,,,,,,,,,,0,6,6,5,60.49709325199365,,,,,,,,,,,,,,,,,,,,,,,,,,,,,,,,,,,,,,,,,,,,,,,,,,,,,,,,,,,60.48322179699608,60.99760416499339,60.99760416499339,61.36674735199631,f,1,0.3594065450015478,None,,,,,,,,936615,001,2024-05-11_12h37.18.678,stroop experiment,2024.1.4,None,2024-05-11 12h37.30.273726 -0400,
dad,pink,0,0,1,0,1,m,,,,,,,,,,,,,0,7,7,2,61.381120054997155,,,,,,,,,,,,,,,,,,,,,,,,,,,,,,,,,,,,,,,,,,,,,,,,,,,,,,,,,,,61.36755310599983,61.88088234499446,61.88088234499446,62.301440487994114,f,0,0.41464119699958246,None,,,,,,,,936615,001,2024-05-11_12h37.18.678,stroop experiment,2024.1.4,None,2024-05-11 12h37.30.273726 -0400,
guy,blue,0,1,0,0,1,m,,,,,,,,,,,,,0,8,8,3,62.315238684997894,,,,,,,,,,,,,,,,,,,,,,,,,,,,,,,,,,,,,,,,,,,,,,,,,,,,,,,,,,,62.302250547996664,62.81430740999349,62.81430740999349,63.41682318599487,m,1,0.5949516059990856,None,,,,,,,,936615,001,2024-05-11_12h37.18.678,stroop experiment,2024.1.4,None,2024-05-11 12h37.30.273726 -0400,
lady,blue,0,0,1,0,1,f,,,,,,,,,,,,,0,9,9,19,63.431087820994435,,,,,,,,,,,,,,,,,,,,,,,,,,,,,,,,,,,,,,,,,,,,,,,,,,,,,,,,,,,63.41761339999357,63.93082976399455,63.93082976399455,64.43445290999807,f,1,0.4859239920042455,None,,,,,,,,936615,001,2024-05-11_12h37.18.678,stroop experiment,2024.1.4,None,2024-05-11 12h37.30.273726 -0400,
aunt,pink,0,1,0,0,1,f,,,,,,,,,,,,,0,10,10,0,64.44983580199914,,,,,,,,,,,,,,,,,,,,,,,,,,,,,,,,,,,,,,,,,,,,,,,,,,,,,,,,,,,64.43547738000052,64.94845823599462,64.94845823599462,65.46784606699657,m,0,0.5135761909987195,None,,,,,,,,936615,001,2024-05-11_12h37.18.678,stroop experiment,2024.1.4,None,2024-05-11 12h37.30.273726 -0400,
father,blue,0,1,0,0,1,m,,,,,,,,,,,,,0,11,11,13,65.48363766999682,,,,,,,,,,,,,,,,,,,,,,,,,,,,,,,,,,,,,,,,,,,,,,,,,,,,,,,,,,,65.46874131899676,65.98131630900025,65.98131630900025,67.017270671,m,1,1.0188548420046573,None,,,,,,,,936615,001,2024-05-11_12h37.18.678,stroop experiment,2024.1.4,None,2024-05-11 12h37.30.273726 -0400,
handsome,blue,0,1,0,0,1,m,,,,,,,,,,,,,0,12,12,16,67.0320814289953,,,,,,,,,,,,,,,,,,,,,,,,,,,,,,,,,,,,,,,,,,,,,,,,,,,,,,,,,,,67.01796161899983,67.53133630299999,67.53133630299999,67.916442542999,m,1,0.38079636100155767,None,,,,,,,,936615,001,2024-05-11_12h37.18.678,stroop experiment,2024.1.4,None,2024-05-11 12h37.30.273726 -0400,
damsel,pink,0,1,0,0,1,f,,,,,,,,,,,,,0,13,13,4,67.93041941099364,,,,,,,,,,,,,,,,,,,,,,,,,,,,,,,,,,,,,,,,,,,,,,,,,,,,,,,,,,,67.91693272699922,68.43221740099398,68.43221740099398,69.0498491699982,f,1,0.6116018630054896,None,,,,,,,,936615,001,2024-05-11_12h37.18.678,stroop experiment,2024.1.4,None,2024-05-11 12h37.30.273726 -0400,
boys,pink,0,0,1,0,1,m,,,,,,,,,,,,,0,14,14,15,69.06401442899369,,,,,,,,,,,,,,,,,,,,,,,,,,,,,,,,,,,,,,,,,,,,,,,,,,,,,,,,,,,69.05045018499368,69.56431052900007,69.56431052900007,71.28579616699426,f,0,1.7145939609981724,None,,,,,,,,936615,001,2024-05-11_12h37.18.678,stroop experiment,2024.1.4,None,2024-05-11 12h37.30.273726 -0400,
daughter,blue,0,0,1,0,1,f,,,,,,,,,,,,,0,15,15,14,71.3000346810004,,,,,,,,,,,,,,,,,,,,,,,,,,,,,,,,,,,,,,,,,,,,,,,,,,,,,,,,,,,71.2865047929954,71.79731887299567,71.79731887299567,73.40079600999888,m,0,1.6002519760004361,None,,,,,,,,936615,001,2024-05-11_12h37.18.678,stroop experiment,2024.1.4,None,2024-05-11 12h37.30.273726 -0400,
female,blue,0,0,1,0,1,f,,,,,,,,,,,,,0,16,16,6,73.41545969199797,,,,,,,,,,,,,,,,,,,,,,,,,,,,,,,,,,,,,,,,,,,,,,,,,,,,,,,,,,,73.40161983399594,73.91477360999852,73.91477360999852,74.61635512099747,m,0,0.687794114004646,None,,,,,,,,936615,001,2024-05-11_12h37.18.678,stroop experiment,2024.1.4,None,2024-05-11 12h37.30.273726 -0400,
uncle,blue,0,1,0,0,1,m,,,,,,,,,,,,,0,17,17,1,74.63169824699435,,,,,,,,,,,,,,,,,,,,,,,,,,,,,,,,,,,,,,,,,,,,,,,,,,,,,,,,,,,74.61736590199871,75.13058034999995,75.13058034999995,77.38436982599524,m,1,2.2480592869978864,None,,,,,,,,936615,001,2024-05-11_12h37.18.678,stroop experiment,2024.1.4,None,2024-05-11 12h37.30.273726 -0400,
girls,pink,0,1,0,0,1,f,,,,,,,,,,,,,0,18,18,12,77.3995698189974,,,,,,,,,,,,,,,,,,,,,,,,,,,,,,,,,,,,,,,,,,,,,,,,,,,,,,,,,,,77.3851767889937,77.8981185579978,77.8981185579978,78.80102745499607,f,1,0.9002681620040676,None,,,,,,,,936615,001,2024-05-11_12h37.18.678,stroop experiment,2024.1.4,None,2024-05-11 12h37.30.273726 -0400,
nephew,pink,0,0,1,0,1,m,,,,,,,,,,,,,0,19,19,7,78.81645819499681,,,,,,,,,,,,,,,,,,,,,,,,,,,,,,,,,,,,,,,,,,,,,,,,,,,,,,,,,,,78.80187097799353,79.31485970899666,79.31485970899666,81.26697917899583,f,0,1.9376941020018421,None,,,,,,,,936615,001,2024-05-11_12h37.18.678,stroop experiment,2024.1.4,None,2024-05-11 12h37.30.273726 -0400,
,,,,,,,,,,,,,,,,,,,,,,,,,,,,,,,,,,,,,,,,,,,,,,,,,,,,,,,,,,,,,,,,,,,,,,,,,,,,,,,,,,,,,,,,,,,81.26781604999996,81.28274282100028,81.28274282100028,82.16598935299407,space,0.8649014630063903,None,936615,001,2024-05-11_12h37.18.678,stroop experiment,2024.1.4,None,2024-05-11 12h37.30.273726 -0400,
